Yes,No,Task,Label1,Label2,Label3,Sky_shape,Earth_shape,Air_shape,intro_label1,intro_label2,intro_label3,Shape1,Shape2,Shape3,intro_label_type1,intro_label_type2,Label,Target,Shape,CorrectAnswer,Happy_shape,Neutral_shape,Sad_shape,HighReward_shape,MediumReward_Shape,LowReward_shape,key_commands.thisRepN,key_commands.thisTrialN,key_commands.thisN,key_commands.thisIndex,task_order.thisRepN,task_order.thisTrialN,task_order.thisN,task_order.thisIndex,task_block.thisRepN,task_block.thisTrialN,task_block.thisN,task_block.thisIndex,practice_trial.thisRepN,practice_trial.thisTrialN,practice_trial.thisN,practice_trial.thisIndex,trials.thisRepN,trials.thisTrialN,trials.thisN,trials.thisIndex,intro_text.started,intro_text.stopped,instructions_text.started,instructions_text.stopped,practice_fixation_cross.started,practice_fixation_cross.stopped,practice_target_label.started,practice_target_label.stopped,practice_target_plus.started,practice_target_plus.stopped,practice_target_shape.started,practice_target_shape.stopped,practice_resp.keys,practice_resp.corr,practice_resp.started,practice_resp.stopped,practice_target_label_valence.started,practice_target_label_valence.stopped,ITI_text.started,ITI_text.stopped,practice_feedback_text.started,practice_feedback_text.stopped,practice_resp.rt,self_practice_end_text.started,self_practice_end_text.stopped,self_trial_fixation_cross.started,self_trial_fixation_cross.stopped,trial_target_label.started,trial_target_label.stopped,trial_target_plus.started,trial_target_plus.stopped,trial_target_shape.started,trial_target_shape.stopped,trial_resp.keys,trial_resp.corr,trial_resp.rt,trial_resp.started,trial_resp.stopped,trial_target_label_valence.started,trial_target_label_valence.stopped,ITI_duration,self_trial_ITI_text.started,self_trial_ITI_text.stopped,self_trial_feedback_text.started,self_trial_feedback_text.stopped,trial_break_text.started,trial_break_text.stopped,image.started,image.stopped,trials_end_text.started,trials_end_text.stopped,trials_end_resp.keys,trials_end_resp.rt,trials_end_resp.started,trials_end_resp.stopped,text.started,text.stopped,participant,group,session,date,expName,psychopyVersion,frameRate,
n,m,Control,S,C,T,Square,Circle,Triangle,air,sky,earth,Air,Earth,Earth,words,word,earth,air,Air,No,,,,,,,0,0,0,0,0,0,0,0,0,0,0,0,0,0,0,5,,,,,17.13548725000146,None,18.0629926670008,None,20.9664668750047,None,22.096868542001175,22.240796999998565,22.096868542001175,22.240796999998565,22.096868542001175,22.240796999998565,None,0,22.096868542001175,None,22.096868542001175,22.240796999998565,23.602674875000957,None,24.1141407920004,None,,,,,,,,,,,,,,,,,,,,,,,,,,,,,,,,,,,,2,B,02,2022-12-06_10h53.40.329,AssociativeLearning_v2,2022.1.4,None,
n,m,Control,S,C,T,Square,Circle,Triangle,air,sky,earth,Air,Earth,Earth,words,word,earth,earth,Earth,Yes,,,,,,,0,0,0,0,0,0,0,0,0,0,0,0,0,1,1,3,,,,,,,,,,,24.629277209001884,24.772229916998185,24.629277209001884,24.772229916998185,24.629277209001884,24.772229916998185,None,0,24.629277209001884,None,24.629277209001884,24.772229916998185,26.12609354199958,None,26.980322209004953,None,,,,,,,,,,,,,,,,,,,,,,,,,,,,,,,,,,,,2,B,02,2022-12-06_10h53.40.329,AssociativeLearning_v2,2022.1.4,None,
n,m,Control,S,C,T,Square,Circle,Triangle,air,sky,earth,Air,Earth,Earth,words,word,sky,earth,Earth,No,,,,,,,0,0,0,0,0,0,0,0,0,0,0,0,0,2,2,1,,,,,,,,,,,27.49262216700299,27.640613167000993,27.49262216700299,27.640613167000993,27.49262216700299,27.640613167000993,None,0,27.49262216700299,None,27.49262216700299,27.640613167000993,28.981665625004098,None,29.78312633400492,None,,,,,,,,,,,,,,,,,,,,,,,,,,,,,,,,,,,,2,B,02,2022-12-06_10h53.40.329,AssociativeLearning_v2,2022.1.4,None,
n,m,Control,S,C,T,Square,Circle,Triangle,air,sky,earth,Air,Earth,Earth,words,word,earth,earth,Earth,Yes,,,,,,,0,0,0,0,0,0,0,0,0,0,0,0,0,3,3,10,,,,,,,,,,,30.286572584001988,30.43493554199813,30.286572584001988,30.43493554199813,30.286572584001988,30.43493554199813,None,0,30.286572584001988,None,30.286572584001988,30.43493554199813,31.786168709004414,None,32.28886108400184,None,,,,,,,,,,,,,,,,,,,,,,,,,,,,,,,,,,,,2,B,02,2022-12-06_10h53.40.329,AssociativeLearning_v2,2022.1.4,None,
n,m,Control,S,C,T,Square,Circle,Triangle,air,sky,earth,Air,Earth,Earth,words,word,earth,sky,Sky,No,,,,,,,0,0,0,0,0,0,0,0,0,0,0,0,0,4,4,4,,,,,,,,,,,32.79967441700137,32.94583129200328,32.79967441700137,32.94583129200328,32.79967441700137,32.94583129200328,m,1,32.79967441700137,None,32.79967441700137,32.94583129200328,33.96967970900005,None,34.72493799999938,None,1.1481388749962207,,,,,,,,,,,,,,,,,,,,,,,,,,,,,,,,,,,2,B,02,2022-12-06_10h53.40.329,AssociativeLearning_v2,2022.1.4,None,
n,m,Control,S,C,T,Square,Circle,Triangle,air,sky,earth,Air,Earth,Earth,words,word,air,earth,Earth,No,,,,,,,0,0,0,0,0,0,0,0,0,0,0,0,0,5,5,8,,,,,,,,,,,35.23814020900318,35.378934334003134,35.23814020900318,35.378934334003134,35.23814020900318,35.378934334003134,m,1,35.23814020900318,None,35.23814020900318,35.378934334003134,35.85652520900476,None,36.699674125004094,None,0.6068752909995965,,,,,,,,,,,,,,,,,,,,,,,,,,,,,,,,,,,2,B,02,2022-12-06_10h53.40.329,AssociativeLearning_v2,2022.1.4,None,
n,m,Control,S,C,T,Square,Circle,Triangle,air,sky,earth,Air,Earth,Earth,words,word,sky,sky,Sky,Yes,,,,,,,0,0,0,0,0,0,0,0,0,0,0,0,0,6,6,0,,,,,,,,,,,37.21316283399938,37.35947312499775,37.21316283399938,37.35947312499775,37.21316283399938,37.35947312499775,m,0,37.21316283399938,None,37.21316283399938,37.35947312499775,37.92414595900482,None,38.69284612499905,None,0.6994515409969608,,,,,,,,,,,,,,,,,,,,,,,,,,,,,,,,,,,2,B,02,2022-12-06_10h53.40.329,AssociativeLearning_v2,2022.1.4,None,
n,m,Control,S,C,T,Square,Circle,Triangle,air,sky,earth,Air,Earth,Earth,words,word,air,sky,Sky,No,,,,,,,0,0,0,0,0,0,0,0,0,0,0,0,0,7,7,7,,,,,,,,,,,39.2063045840041,39.353634792001685,39.2063045840041,39.353634792001685,39.2063045840041,39.353634792001685,n,0,39.2063045840041,None,39.2063045840041,39.353634792001685,39.9894301250024,None,40.50477312500152,None,0.7687060410025879,,,,,,,,,,,,,,,,,,,,,,,,,,,,,,,,,,,2,B,02,2022-12-06_10h53.40.329,AssociativeLearning_v2,2022.1.4,None,
n,m,Control,S,C,T,Square,Circle,Triangle,air,sky,earth,Air,Earth,Earth,words,word,air,air,Air,Yes,,,,,,,0,0,0,0,0,0,0,0,0,0,0,0,0,8,8,11,,,,,,,,,,,41.00892570900032,41.15385370900185,41.00892570900032,41.15385370900185,41.00892570900032,41.15385370900185,m,0,41.00892570900032,None,41.00892570900032,41.15385370900185,41.996578584003146,None,42.61661429200467,None,0.9722932499935268,,,,,,,,,,,,,,,,,,,,,,,,,,,,,,,,,,,2,B,02,2022-12-06_10h53.40.329,AssociativeLearning_v2,2022.1.4,None,
n,m,Control,S,C,T,Square,Circle,Triangle,air,sky,earth,Air,Earth,Earth,words,word,air,air,Air,Yes,,,,,,,0,0,0,0,0,0,0,0,0,0,0,0,0,9,9,6,,,,,,,,,,,43.12595037500432,43.274198541999795,43.12595037500432,43.274198541999795,43.12595037500432,43.274198541999795,n,1,43.12595037500432,None,43.12595037500432,43.274198541999795,44.00148949999857,None,44.49707608400058,None,0.8635117489975528,,,,,,,,,,,,,,,,,,,,,,,,,,,,,,,,,,,2,B,02,2022-12-06_10h53.40.329,AssociativeLearning_v2,2022.1.4,None,
n,m,Control,S,C,T,Square,Circle,Triangle,air,sky,earth,Air,Earth,Earth,words,word,sky,air,Air,No,,,,,,,0,0,0,0,0,0,0,0,0,0,0,0,0,10,10,2,,,,,,,,,,,45.0085125839978,45.157570209004916,45.0085125839978,45.157570209004916,45.0085125839978,45.157570209004916,m,1,45.0085125839978,None,45.0085125839978,45.157570209004916,45.76688416700199,None,46.45748920900223,None,0.7454692079991219,,,,,,,,,,,,,,,,,,,,,,,,,,,,,,,,,,,2,B,02,2022-12-06_10h53.40.329,AssociativeLearning_v2,2022.1.4,None,
n,m,Control,S,C,T,Square,Circle,Triangle,air,sky,earth,Air,Earth,Earth,words,word,sky,sky,Sky,Yes,,,,,,,0,0,0,0,0,0,0,0,0,0,0,0,0,11,11,9,,,,,,,,,,,46.96912662500108,47.118080042004294,46.96912662500108,47.118080042004294,46.96912662500108,47.118080042004294,n,1,46.96912662500108,None,46.96912662500108,47.118080042004294,47.77801695900416,None,48.48318450000079,None,0.7934888739982853,,,,,,,,,,,,,,,,,,,,,,,,,,,,,,,,,,,2,B,02,2022-12-06_10h53.40.329,AssociativeLearning_v2,2022.1.4,None,
n,m,Control,S,C,T,Square,Circle,Triangle,air,sky,earth,Air,Earth,Earth,words,word,air,earth,Earth,No,,,,,,,0,0,0,0,0,0,0,0,0,0,0,0,1,0,12,8,,,,,,,,,,,48.99730470900249,49.13724904200353,48.99730470900249,49.13724904200353,48.99730470900249,49.13724904200353,m,1,48.99730470900249,None,48.99730470900249,49.13724904200353,49.70378925000114,None,50.55735200000345,None,0.6898435819966835,,,,,,,,,,,,,,,,,,,,,,,,,,,,,,,,,,,2,B,02,2022-12-06_10h53.40.329,AssociativeLearning_v2,2022.1.4,None,
n,m,Control,S,C,T,Square,Circle,Triangle,air,sky,earth,Air,Earth,Earth,words,word,sky,air,Air,No,,,,,,,0,0,0,0,0,0,0,0,0,0,0,0,1,1,13,2,,,,,,,,,,,51.07054129199969,51.217946000004304,51.07054129199969,51.217946000004304,51.07054129199969,51.217946000004304,n,0,51.07054129199969,None,51.07054129199969,51.217946000004304,51.5003148340038,None,52.122596084002,None,0.41712608299712883,,,,,,,,,,,,,,,,,,,,,,,,,,,,,,,,,,,2,B,02,2022-12-06_10h53.40.329,AssociativeLearning_v2,2022.1.4,None,
n,m,Control,S,C,T,Square,Circle,Triangle,air,sky,earth,Air,Earth,Earth,words,word,sky,earth,Earth,No,,,,,,,0,0,0,0,0,0,0,0,0,0,0,0,1,2,14,1,,,,,,,,,,,52.627657042001374,52.775947041998734,52.627657042001374,52.775947041998734,52.627657042001374,52.775947041998734,m,1,52.627657042001374,None,52.627657042001374,52.775947041998734,53.69466195900168,None,54.497783334001724,None,1.052190623995557,,,,,,,,,,,,,,,,,,,,,,,,,,,,,,,,,,,2,B,02,2022-12-06_10h53.40.329,AssociativeLearning_v2,2022.1.4,None,
n,m,Control,S,C,T,Square,Circle,Triangle,air,sky,earth,Air,Earth,Earth,words,word,earth,earth,Earth,Yes,,,,,,,0,0,0,0,0,0,0,0,0,0,0,0,1,3,15,3,,,,,,,,,,,55.00571666700125,55.14542870900186,55.00571666700125,55.14542870900186,55.00571666700125,55.14542870900186,m,0,55.00571666700125,None,55.00571666700125,55.14542870900186,55.88100295900222,None,56.505141667003045,None,0.8519472909974866,,,,,,,,,,,,,,,,,,,,,,,,,,,,,,,,,,,2,B,02,2022-12-06_10h53.40.329,AssociativeLearning_v2,2022.1.4,None,
n,m,Control,S,C,T,Square,Circle,Triangle,air,sky,earth,Air,Earth,Earth,words,word,air,air,Air,Yes,,,,,,,0,0,0,0,0,0,0,0,0,0,0,0,1,4,16,6,,,,,,,,,,,57.01480862500466,57.16194662500493,57.01480862500466,57.16194662500493,57.01480862500466,57.16194662500493,m,0,57.01480862500466,None,57.01480862500466,57.16194662500493,58.0557397090015,None,58.850833875003445,None,1.0214717499984545,,,,,,,,,,,,,,,,,,,,,,,,,,,,,,,,,,,2,B,02,2022-12-06_10h53.40.329,AssociativeLearning_v2,2022.1.4,None,
n,m,Control,S,C,T,Square,Circle,Triangle,air,sky,earth,Air,Earth,Earth,words,word,earth,earth,Earth,Yes,,,,,,,0,0,0,0,0,0,0,0,0,0,0,0,1,5,17,10,,,,,,,,,,,59.363166750001255,59.51075716700143,59.363166750001255,59.51075716700143,59.363166750001255,59.51075716700143,None,0,59.363166750001255,None,59.363166750001255,59.51075716700143,60.8542846670025,None,61.62501950000296,None,,,,,,,,,,,,,,,,,,,,,,,,,,,,,,,,,,,,2,B,02,2022-12-06_10h53.40.329,AssociativeLearning_v2,2022.1.4,None,
n,m,Control,S,C,T,Square,Circle,Triangle,air,sky,earth,Air,Earth,Earth,words,word,earth,air,Air,No,,,,,,,0,0,0,0,0,0,0,0,0,0,0,0,1,6,18,5,,,,,,,,,,,62.13632150000194,62.28557487500075,62.13632150000194,62.28557487500075,62.13632150000194,62.28557487500075,m,1,62.13632150000194,None,62.13632150000194,62.28557487500075,63.24531020900031,None,63.99003937499947,None,1.0929854989954038,,,,,,,,,,,,,,,,,,,,,,,,,,,,,,,,,,,2,B,02,2022-12-06_10h53.40.329,AssociativeLearning_v2,2022.1.4,None,
n,m,Control,S,C,T,Square,Circle,Triangle,air,sky,earth,Air,Earth,Earth,words,word,air,air,Air,Yes,,,,,,,0,0,0,0,0,0,0,0,0,0,0,0,1,7,19,11,,,,,,,,,,,64.50474937500258,64.65236408400233,64.50474937500258,64.65236408400233,64.50474937500258,64.65236408400233,n,1,64.50474937500258,None,64.50474937500258,64.65236408400233,65.79017070899863,None,66.3887146670022,None,1.2711702489978052,,,,,,,,,,,,,,,,,,,,,,,,,,,,,,,,,,,2,B,02,2022-12-06_10h53.40.329,AssociativeLearning_v2,2022.1.4,None,
n,m,Control,S,C,T,Square,Circle,Triangle,air,sky,earth,Air,Earth,Earth,words,word,sky,sky,Sky,Yes,,,,,,,0,0,0,0,0,0,0,0,0,0,0,0,1,8,20,0,,,,,,,,,,,66.89597745900392,67.04225933400448,66.89597745900392,67.04225933400448,66.89597745900392,67.04225933400448,m,0,66.89597745900392,None,66.89597745900392,67.04225933400448,67.60440420899977,None,68.20175991699944,None,0.6862151239984087,,,,,,,,,,,,,,,,,,,,,,,,,,,,,,,,,,,2,B,02,2022-12-06_10h53.40.329,AssociativeLearning_v2,2022.1.4,None,
n,m,Control,S,C,T,Square,Circle,Triangle,air,sky,earth,Air,Earth,Earth,words,word,air,sky,Sky,No,,,,,,,0,0,0,0,0,0,0,0,0,0,0,0,1,9,21,7,,,,,,,,,,,68.7145271670015,68.86240091700165,68.7145271670015,68.86240091700165,68.7145271670015,68.86240091700165,n,0,68.7145271670015,None,68.7145271670015,68.86240091700165,69.78075045900187,None,70.44636524999805,None,1.0484992069978034,,,,,,,,,,,,,,,,,,,,,,,,,,,,,,,,,,,2,B,02,2022-12-06_10h53.40.329,AssociativeLearning_v2,2022.1.4,None,
n,m,Control,S,C,T,Square,Circle,Triangle,air,sky,earth,Air,Earth,Earth,words,word,earth,sky,Sky,No,,,,,,,0,0,0,0,0,0,0,0,0,0,0,0,1,10,22,4,,,,,,,,,,,71.06090695899911,71.20796037500259,71.06090695899911,71.20796037500259,71.06090695899911,71.20796037500259,m,1,71.06090695899911,None,71.06090695899911,71.20796037500259,71.69604179199814,None,72.28001308400417,None,0.6235158749987022,,,,,,,,,,,,,,,,,,,,,,,,,,,,,,,,,,,2,B,02,2022-12-06_10h53.40.329,AssociativeLearning_v2,2022.1.4,None,
n,m,Control,S,C,T,Square,Circle,Triangle,air,sky,earth,Air,Earth,Earth,words,word,sky,sky,Sky,Yes,,,,,,,0,0,0,0,0,0,0,0,0,0,0,0,1,11,23,9,,,,,,,,,,,72.79210229199816,72.93431166699884,72.79210229199816,72.93431166699884,72.79210229199816,72.93431166699884,n,1,72.79210229199816,None,72.79210229199816,72.93431166699884,73.66218541700073,None,74.36026454200328,None,0.8568957910028985,,,,,,,,,,,,,,,,,,,,,,,,,,,,,,,,,,,2,B,02,2022-12-06_10h53.40.329,AssociativeLearning_v2,2022.1.4,None,
n,m,Control,S,C,T,Square,Circle,Triangle,air,sky,earth,Air,Earth,Earth,words,word,earth,sky,Sky,No,,,,,,,0,0,0,0,0,0,0,0,0,0,0,0,,,,,0,0,0,4,,,,,,,,,,,,,,,,,,,,,,,,74.92117149999831,None,79.42153050000343,None,79.68112570900121,79.82103029199789,79.68112570900121,79.82103029199789,79.68112570900121,79.82103029199789,n,0,1.3354324989923043,79.68112570900121,None,79.68112570900121,79.82103029199789,0.58,81.0404322500035,None,81.6138171249986,None,None,None,None,None,,,,,,,,,2,B,02,2022-12-06_10h53.40.329,AssociativeLearning_v2,2022.1.4,None,
n,m,Control,S,C,T,Square,Circle,Triangle,air,sky,earth,Air,Earth,Earth,words,word,air,earth,Earth,No,,,,,,,0,0,0,0,0,0,0,0,0,0,0,0,,,,,0,1,1,8,,,,,,,,,,,,,,,,,,,,,,,,,,None,None,81.87200725000002,82.01433787499991,81.87200725000002,82.01433787499991,81.87200725000002,82.01433787499991,None,0,,81.87200725000002,None,81.87200725000002,82.01433787499991,0.792,83.36714220900467,None,84.15452016700146,None,None,None,None,None,,,,,,,,,2,B,02,2022-12-06_10h53.40.329,AssociativeLearning_v2,2022.1.4,None,
n,m,Control,S,C,T,Square,Circle,Triangle,air,sky,earth,Air,Earth,Earth,words,word,air,sky,Sky,No,,,,,,,0,0,0,0,0,0,0,0,0,0,0,0,,,,,0,2,2,7,,,,,,,,,,,,,,,,,,,,,,,,,,None,None,84.41506654200202,84.56261449999874,84.41506654200202,84.56261449999874,84.41506654200202,84.56261449999874,None,0,,84.41506654200202,None,84.41506654200202,84.56261449999874,0.843,85.91882745899784,None,86.76015108400316,None,None,None,None,None,,,,,,,,,2,B,02,2022-12-06_10h53.40.329,AssociativeLearning_v2,2022.1.4,None,
n,m,Control,S,C,T,Square,Circle,Triangle,air,sky,earth,Air,Earth,Earth,words,word,earth,air,Air,No,,,,,,,0,0,0,0,0,0,0,0,0,0,0,0,,,,,0,3,3,5,,,,,,,,,,,,,,,,,,,,,,,,,,None,None,87.02570629199909,87.17107995900005,87.02570629199909,87.17107995900005,87.02570629199909,87.17107995900005,n,0,0.7378685829971801,87.02570629199909,None,87.02570629199909,87.17107995900005,0.641,87.7817540420001,None,88.42075983399991,None,None,None,None,None,,,,,,,,,2,B,02,2022-12-06_10h53.40.329,AssociativeLearning_v2,2022.1.4,None,
n,m,Control,S,C,T,Square,Circle,Triangle,air,sky,earth,Air,Earth,Earth,words,word,earth,earth,Earth,Yes,,,,,,,0,0,0,0,0,0,0,0,0,0,0,0,,,,,0,4,4,10,,,,,,,,,,,,,,,,,,,,,,,,,,None,None,88.67306837499927,88.81298283400247,88.67306837499927,88.81298283400247,88.67306837499927,88.81298283400247,m,0,0.6432495819972246,88.67306837499927,None,88.67306837499927,88.81298283400247,0.501,89.3327722920003,None,89.82221929200023,None,None,None,None,None,,,,,,,,,2,B,02,2022-12-06_10h53.40.329,AssociativeLearning_v2,2022.1.4,None,
n,m,Control,S,C,T,Square,Circle,Triangle,air,sky,earth,Air,Earth,Earth,words,word,air,air,Air,Yes,,,,,,,0,0,0,0,0,0,0,0,0,0,0,0,,,,,0,5,5,6,,,,,,,,,,,,,,,,,,,,,,,,,,None,None,90.07997766700282,90.227618334,90.07997766700282,90.227618334,90.07997766700282,90.227618334,n,1,0.7073272909983643,90.07997766700282,None,90.07997766700282,90.227618334,0.532,90.80476550000458,None,91.33580162499857,None,None,None,None,None,,,,,,,,,2,B,02,2022-12-06_10h53.40.329,AssociativeLearning_v2,2022.1.4,None,
n,m,Control,S,C,T,Square,Circle,Triangle,air,sky,earth,Air,Earth,Earth,words,word,sky,earth,Earth,No,,,,,,,0,0,0,0,0,0,0,0,0,0,0,0,,,,,0,6,6,1,,,,,,,,,,,,,,,,,,,,,,,,,,None,None,91.5995891249986,91.74624162499822,91.5995891249986,91.74624162499822,91.5995891249986,91.74624162499822,m,1,0.7593160409960547,91.5995891249986,None,91.5995891249986,91.74624162499822,0.535,92.37387166699773,None,92.90020333400025,None,None,None,None,None,,,,,,,,,2,B,02,2022-12-06_10h53.40.329,AssociativeLearning_v2,2022.1.4,None,
n,m,Control,S,C,T,Square,Circle,Triangle,air,sky,earth,Air,Earth,Earth,words,word,sky,sky,Sky,Yes,,,,,,,0,0,0,0,0,0,0,0,0,0,0,0,,,,,0,7,7,0,,,,,,,,,,,,,,,,,,,,,,,,,,None,None,93.15630095900269,93.30351179200079,93.15630095900269,93.30351179200079,93.15630095900269,93.30351179200079,m,0,0.84231604100205,93.15630095900269,None,93.15630095900269,93.30351179200079,0.639,94.025029000004,None,94.663114959003,None,None,None,None,None,,,,,,,,,2,B,02,2022-12-06_10h53.40.329,AssociativeLearning_v2,2022.1.4,None,
n,m,Control,S,C,T,Square,Circle,Triangle,air,sky,earth,Air,Earth,Earth,words,word,air,air,Air,Yes,,,,,,,0,0,0,0,0,0,0,0,0,0,0,0,,,,,0,8,8,11,,,,,,,,,,,,,,,,,,,,,,,,,,None,None,94.916947042002,95.06221104200085,94.916947042002,95.06221104200085,94.916947042002,95.06221104200085,n,1,0.6977144580014283,94.916947042002,None,94.916947042002,95.06221104200085,0.754,95.63815016700391,None,96.385478917,None,None,None,None,None,,,,,,,,,2,B,02,2022-12-06_10h53.40.329,AssociativeLearning_v2,2022.1.4,None,
n,m,Control,S,C,T,Square,Circle,Triangle,air,sky,earth,Air,Earth,Earth,words,word,sky,sky,Sky,Yes,,,,,,,0,0,0,0,0,0,0,0,0,0,0,0,,,,,0,9,9,9,,,,,,,,,,,,,,,,,,,,,,,,,,None,None,96.64699200000177,96.78865162500006,96.64699200000177,96.78865162500006,96.64699200000177,96.78865162500006,m,0,0.6226463319981121,96.64699200000177,None,96.64699200000177,96.78865162500006,0.774,97.28187308400084,None,98.05976887499855,None,None,None,None,None,,,,,,,,,2,B,02,2022-12-06_10h53.40.329,AssociativeLearning_v2,2022.1.4,None,
n,m,Control,S,C,T,Square,Circle,Triangle,air,sky,earth,Air,Earth,Earth,words,word,sky,air,Air,No,,,,,,,0,0,0,0,0,0,0,0,0,0,0,0,,,,,0,10,10,2,,,,,,,,,,,,,,,,,,,,,,,,,,None,None,98.31838033399981,98.46662125000148,98.31838033399981,98.46662125000148,98.31838033399981,98.46662125000148,n,0,0.7928487499957555,98.31838033399981,None,98.31838033399981,98.46662125000148,0.897,99.12186679200386,None,100.01719837500423,None,None,None,None,None,,,,,,,,,2,B,02,2022-12-06_10h53.40.329,AssociativeLearning_v2,2022.1.4,None,
n,m,Control,S,C,T,Square,Circle,Triangle,air,sky,earth,Air,Earth,Earth,words,word,earth,earth,Earth,Yes,,,,,,,0,0,0,0,0,0,0,0,0,0,0,0,,,,,0,11,11,3,,,,,,,,,,,,,,,,,,,,,,,,,,None,None,100.27474470900052,100.42027225000493,100.27474470900052,100.42027225000493,100.27474470900052,100.42027225000493,n,1,0.5282229160002316,100.27474470900052,None,100.27474470900052,100.42027225000493,0.799,100.81365104200086,None,101.60874975000479,None,None,None,None,None,,,,,,,,,2,B,02,2022-12-06_10h53.40.329,AssociativeLearning_v2,2022.1.4,None,
n,m,Control,S,C,T,Square,Circle,Triangle,air,sky,earth,Air,Earth,Earth,words,word,sky,earth,Earth,No,,,,,,,0,0,0,0,0,0,0,0,0,0,0,0,,,,,1,0,12,1,,,,,,,,,,,,,,,,,,,,,,,,,,None,None,101.86436308400152,102.01459954200254,101.86436308400152,102.01459954200254,101.86436308400152,102.01459954200254,n,0,0.760449374000018,101.86436308400152,None,101.86436308400152,102.01459954200254,0.799,102.6497605839977,None,103.45488529199793,None,None,None,None,None,,,,,,,,,2,B,02,2022-12-06_10h53.40.329,AssociativeLearning_v2,2022.1.4,None,
n,m,Control,S,C,T,Square,Circle,Triangle,air,sky,earth,Air,Earth,Earth,words,word,air,sky,Sky,No,,,,,,,0,0,0,0,0,0,0,0,0,0,0,0,,,,,1,1,13,7,,,,,,,,,,,,,,,,,,,,,,,,,,None,None,103.7096810840012,103.85635358400032,103.7096810840012,103.85635358400032,103.7096810840012,103.85635358400032,m,1,0.8950599989984767,103.7096810840012,None,103.7096810840012,103.85635358400032,0.833,104.6220131250011,None,105.45191904200328,None,None,None,None,None,,,,,,,,,2,B,02,2022-12-06_10h53.40.329,AssociativeLearning_v2,2022.1.4,None,
n,m,Control,S,C,T,Square,Circle,Triangle,air,sky,earth,Air,Earth,Earth,words,word,sky,air,Air,No,,,,,,,0,0,0,0,0,0,0,0,0,0,0,0,,,,,1,2,14,2,,,,,,,,,,,,,,,,,,,,,,,,,,None,None,105.7134777090032,105.86020575000293,105.7134777090032,105.86020575000293,105.7134777090032,105.86020575000293,m,1,0.8917906659989967,105.7134777090032,None,105.7134777090032,105.86020575000293,0.836,106.61774458400032,None,107.44850666700222,None,None,None,None,None,,,,,,,,,2,B,02,2022-12-06_10h53.40.329,AssociativeLearning_v2,2022.1.4,None,
n,m,Control,S,C,T,Square,Circle,Triangle,air,sky,earth,Air,Earth,Earth,words,word,air,earth,Earth,No,,,,,,,0,0,0,0,0,0,0,0,0,0,0,0,,,,,1,3,15,8,,,,,,,,,,,,,,,,,,,,,,,,,,None,None,107.70530670900189,107.84737804200267,107.70530670900189,107.84737804200267,107.70530670900189,107.84737804200267,m,1,0.9685409999947296,107.70530670900189,None,107.70530670900189,107.84737804200267,0.619,108.69622916699882,None,109.31365437500062,None,None,None,None,None,,,,,,,,,2,B,02,2022-12-06_10h53.40.329,AssociativeLearning_v2,2022.1.4,None,
n,m,Control,S,C,T,Square,Circle,Triangle,air,sky,earth,Air,Earth,Earth,words,word,air,air,Air,Yes,,,,,,,0,0,0,0,0,0,0,0,0,0,0,0,,,,,1,4,16,11,,,,,,,,,,,,,,,,,,,,,,,,,,None,None,109.56737229200371,109.71631741699821,109.56737229200371,109.71631741699821,109.56737229200371,109.71631741699821,m,0,1.079853748997266,109.56737229200371,None,109.56737229200371,109.71631741699821,0.812,110.65959220899822,None,111.46387775000039,None,None,None,None,None,,,,,,,,,2,B,02,2022-12-06_10h53.40.329,AssociativeLearning_v2,2022.1.4,None,
n,m,Control,S,C,T,Square,Circle,Triangle,air,sky,earth,Air,Earth,Earth,words,word,sky,sky,Sky,Yes,,,,,,,0,0,0,0,0,0,0,0,0,0,0,0,,,,,1,5,17,0,,,,,,,,,,,,,,,,,,,,,,,,,,None,None,111.72026591699978,111.86706399999821,111.72026591699978,111.86706399999821,111.72026591699978,111.86706399999821,m,0,0.8045392489948426,111.72026591699978,None,111.72026591699978,111.86706399999821,0.562,112.54026829200302,None,113.10117750000063,None,None,None,None,None,,,,,,,,,2,B,02,2022-12-06_10h53.40.329,AssociativeLearning_v2,2022.1.4,None,
n,m,Control,S,C,T,Square,Circle,Triangle,air,sky,earth,Air,Earth,Earth,words,word,air,air,Air,Yes,,,,,,,0,0,0,0,0,0,0,0,0,0,0,0,,,,,1,6,18,6,,,,,,,,,,,,,,,,,,,,,,,,,,None,None,113.35847462499805,113.50384670899803,113.35847462499805,113.50384670899803,113.35847462499805,113.50384670899803,n,1,0.7423604569994495,113.35847462499805,None,113.35847462499805,113.50384670899803,0.637,114.11700700000074,None,114.74734137500491,None,None,None,None,None,,,,,,,,,2,B,02,2022-12-06_10h53.40.329,AssociativeLearning_v2,2022.1.4,None,
n,m,Control,S,C,T,Square,Circle,Triangle,air,sky,earth,Air,Earth,Earth,words,word,earth,air,Air,No,,,,,,,0,0,0,0,0,0,0,0,0,0,0,0,,,,,1,7,19,5,,,,,,,,,,,,,,,,,,,,,,,,,,None,None,115.00523379199876,115.1524456670013,115.00523379199876,115.1524456670013,115.00523379199876,115.1524456670013,m,1,0.933287374995416,115.00523379199876,None,115.00523379199876,115.1524456670013,0.648,115.96596083400073,None,116.60629499999777,None,None,None,None,None,,,,,,,,,2,B,02,2022-12-06_10h53.40.329,AssociativeLearning_v2,2022.1.4,None,
n,m,Control,S,C,T,Square,Circle,Triangle,air,sky,earth,Air,Earth,Earth,words,word,earth,earth,Earth,Yes,,,,,,,0,0,0,0,0,0,0,0,0,0,0,0,,,,,1,8,20,3,,,,,,,,,,,,,,,,,,,,,,,,,,None,None,116.86031270900276,117.0085590000017,116.86031270900276,117.0085590000017,116.86031270900276,117.0085590000017,m,0,0.8240170830031275,116.86031270900276,None,116.86031270900276,117.0085590000017,0.593,117.69797691699932,None,118.28675545900478,None,None,None,None,None,,,,,,,,,2,B,02,2022-12-06_10h53.40.329,AssociativeLearning_v2,2022.1.4,None,
n,m,Control,S,C,T,Square,Circle,Triangle,air,sky,earth,Air,Earth,Earth,words,word,earth,earth,Earth,Yes,,,,,,,0,0,0,0,0,0,0,0,0,0,0,0,,,,,1,9,21,10,,,,,,,,,,,,,,,,,,,,,,,,,,None,None,118.54580466700281,118.68723341700388,118.54580466700281,118.68723341700388,118.54580466700281,118.68723341700388,n,1,0.7580412499955855,118.54580466700281,None,118.54580466700281,118.68723341700388,0.656,119.31830541700037,None,119.9779206250023,None,None,None,None,None,,,,,,,,,2,B,02,2022-12-06_10h53.40.329,AssociativeLearning_v2,2022.1.4,None,
n,m,Control,S,C,T,Square,Circle,Triangle,air,sky,earth,Air,Earth,Earth,words,word,sky,sky,Sky,Yes,,,,,,,0,0,0,0,0,0,0,0,0,0,0,0,,,,,1,10,22,9,,,,,,,,,,,,,,,,,,,,,,,,,,None,None,120.23995954199927,120.38661316700018,120.23995954199927,120.38661316700018,120.23995954199927,120.38661316700018,m,0,0.6561553740029922,120.23995954199927,None,120.23995954199927,120.38661316700018,0.729,120.91322225000476,None,121.64387816700037,None,None,None,None,None,,,,,,,,,2,B,02,2022-12-06_10h53.40.329,AssociativeLearning_v2,2022.1.4,None,
n,m,Control,S,C,T,Square,Circle,Triangle,air,sky,earth,Air,Earth,Earth,words,word,earth,sky,Sky,No,,,,,,,0,0,0,0,0,0,0,0,0,0,0,0,,,,,1,11,23,4,,,,,,,,,,,,,,,,,,,,,,,,,,None,None,121.90587116700044,122.04822437500115,121.90587116700044,122.04822437500115,121.90587116700044,122.04822437500115,m,1,0.8913282079956844,121.90587116700044,None,121.90587116700044,122.04822437500115,0.89,122.81360054200195,None,123.69703070900141,None,None,None,None,None,,,,,,,,,2,B,02,2022-12-06_10h53.40.329,AssociativeLearning_v2,2022.1.4,None,
n,m,Control,S,C,T,Square,Circle,Triangle,air,sky,earth,Air,Earth,Earth,words,word,air,air,Air,Yes,,,,,,,0,0,0,0,0,0,0,0,0,0,0,0,,,,,2,0,24,11,,,,,,,,,,,,,,,,,,,,,,,,,,None,None,123.95485358400038,124.09513554200385,123.95485358400038,124.09513554200385,123.95485358400038,124.09513554200385,n,1,0.8335362080033519,123.95485358400038,None,123.95485358400038,124.09513554200385,0.688,124.81667370899959,None,125.50042850000318,None,None,None,None,None,,,,,,,,,2,B,02,2022-12-06_10h53.40.329,AssociativeLearning_v2,2022.1.4,None,
n,m,Control,S,C,T,Square,Circle,Triangle,air,sky,earth,Air,Earth,Earth,words,word,sky,earth,Earth,No,,,,,,,0,0,0,0,0,0,0,0,0,0,0,0,,,,,2,1,25,1,,,,,,,,,,,,,,,,,,,,,,,,,,None,None,125.76613241700397,125.9121815000035,125.76613241700397,125.9121815000035,125.76613241700397,125.9121815000035,m,1,0.9829715409941855,125.76613241700397,None,125.76613241700397,125.9121815000035,0.595,126.76226870900427,None,127.35772562499915,None,None,None,None,None,,,,,,,,,2,B,02,2022-12-06_10h53.40.329,AssociativeLearning_v2,2022.1.4,None,
n,m,Control,S,C,T,Square,Circle,Triangle,air,sky,earth,Air,Earth,Earth,words,word,sky,air,Air,No,,,,,,,0,0,0,0,0,0,0,0,0,0,0,0,,,,,2,2,26,2,,,,,,,,,,,,,,,,,,,,,,,,,,None,None,127.61224962500273,127.75872150000214,127.61224962500273,127.75872150000214,127.61224962500273,127.75872150000214,None,0,,127.61224962500273,None,127.61224962500273,127.75872150000214,0.873,129.10463745900051,None,129.97582837499795,None,None,None,None,None,,,,,,,,,2,B,02,2022-12-06_10h53.40.329,AssociativeLearning_v2,2022.1.4,None,
n,m,Control,S,C,T,Square,Circle,Triangle,air,sky,earth,Air,Earth,Earth,words,word,earth,air,Air,No,,,,,,,0,0,0,0,0,0,0,0,0,0,0,0,,,,,2,3,27,5,,,,,,,,,,,,,,,,,,,,,,,,,,None,None,130.2298792090005,130.37073566699837,130.2298792090005,130.37073566699837,130.2298792090005,130.37073566699837,n,0,1.2160924579948187,130.2298792090005,None,130.2298792090005,130.37073566699837,0.593,131.45713154200348,None,132.04566008400434,None,None,None,None,None,,,,,,,,,2,B,02,2022-12-06_10h53.40.329,AssociativeLearning_v2,2022.1.4,None,
n,m,Control,S,C,T,Square,Circle,Triangle,air,sky,earth,Air,Earth,Earth,words,word,air,sky,Sky,No,,,,,,,0,0,0,0,0,0,0,0,0,0,0,0,,,,,2,4,28,7,,,,,,,,,,,,,,,,,,,,,,,,,,None,None,132.30813962499815,132.45359625000128,132.30813962499815,132.45359625000128,132.30813962499815,132.45359625000128,m,1,0.9997814989983453,132.30813962499815,None,132.30813962499815,132.45359625000128,0.786,133.32908116700128,None,134.11096041699784,None,None,None,None,None,,,,,,,,,2,B,02,2022-12-06_10h53.40.329,AssociativeLearning_v2,2022.1.4,None,
n,m,Control,S,C,T,Square,Circle,Triangle,air,sky,earth,Air,Earth,Earth,words,word,air,air,Air,Yes,,,,,,,0,0,0,0,0,0,0,0,0,0,0,0,,,,,2,5,29,6,,,,,,,,,,,,,,,,,,,,,,,,,,None,None,134.37072491700383,134.51268654200248,134.37072491700383,134.51268654200248,134.37072491700383,134.51268654200248,n,1,1.1432997489973786,134.37072491700383,None,134.37072491700383,134.51268654200248,0.894,135.54047925000486,None,136.4339754169996,None,None,None,None,None,,,,,,,,,2,B,02,2022-12-06_10h53.40.329,AssociativeLearning_v2,2022.1.4,None,
n,m,Control,S,C,T,Square,Circle,Triangle,air,sky,earth,Air,Earth,Earth,words,word,sky,sky,Sky,Yes,,,,,,,0,0,0,0,0,0,0,0,0,0,0,0,,,,,2,6,30,9,,,,,,,,,,,,,,,,,,,,,,,,,,None,None,136.6982352499981,136.8456710840037,136.6982352499981,136.8456710840037,136.6982352499981,136.8456710840037,m,0,0.951477957998577,136.6982352499981,None,136.6982352499981,136.8456710840037,0.779,137.6712647500026,None,138.44752887500363,None,None,None,None,None,,,,,,,,,2,B,02,2022-12-06_10h53.40.329,AssociativeLearning_v2,2022.1.4,None,
n,m,Control,S,C,T,Square,Circle,Triangle,air,sky,earth,Air,Earth,Earth,words,word,earth,earth,Earth,Yes,,,,,,,0,0,0,0,0,0,0,0,0,0,0,0,,,,,2,7,31,10,,,,,,,,,,,,,,,,,,,,,,,,,,None,None,138.70617345900246,138.85349245899852,138.70617345900246,138.85349245899852,138.70617345900246,138.85349245899852,m,0,0.9480164579945267,138.70617345900246,None,138.70617345900246,138.85349245899852,0.774,139.6678968749984,None,140.4384976670044,None,None,None,None,None,,,,,,,,,2,B,02,2022-12-06_10h53.40.329,AssociativeLearning_v2,2022.1.4,None,
n,m,Control,S,C,T,Square,Circle,Triangle,air,sky,earth,Air,Earth,Earth,words,word,air,earth,Earth,No,,,,,,,0,0,0,0,0,0,0,0,0,0,0,0,,,,,2,8,32,8,,,,,,,,,,,,,,,,,,,,,,,,,,None,None,140.6935390840008,140.8377729999993,140.6935390840008,140.8377729999993,140.6935390840008,140.8377729999993,n,0,0.7606712080014404,140.6935390840008,None,140.6935390840008,140.8377729999993,0.796,141.46627537500171,None,142.25678295900434,None,None,None,None,None,,,,,,,,,2,B,02,2022-12-06_10h53.40.329,AssociativeLearning_v2,2022.1.4,None,
n,m,Control,S,C,T,Square,Circle,Triangle,air,sky,earth,Air,Earth,Earth,words,word,earth,earth,Earth,Yes,,,,,,,0,0,0,0,0,0,0,0,0,0,0,0,,,,,2,9,33,3,,,,,,,,,,,,,,,,,,,,,,,,,,None,None,142.51424362500256,142.6558813340016,142.51424362500256,142.6558813340016,142.51424362500256,142.6558813340016,n,1,0.9639901239934261,142.51424362500256,None,142.51424362500256,142.6558813340016,0.754,143.49423675000435,None,144.2431289169981,None,None,None,None,None,,,,,,,,,2,B,02,2022-12-06_10h53.40.329,AssociativeLearning_v2,2022.1.4,None,
n,m,Control,S,C,T,Square,Circle,Triangle,air,sky,earth,Air,Earth,Earth,words,word,sky,sky,Sky,Yes,,,,,,,0,0,0,0,0,0,0,0,0,0,0,0,,,,,2,10,34,0,,,,,,,,,,,,,,,,,,,,,,,,,,None,None,144.506464625003,144.65383570900303,144.506464625003,144.65383570900303,144.506464625003,144.65383570900303,m,0,0.7315384159956011,144.506464625003,None,144.506464625003,144.65383570900303,0.607,145.2544578340021,None,145.86032174999855,None,None,None,None,None,,,,,,,,,2,B,02,2022-12-06_10h53.40.329,AssociativeLearning_v2,2022.1.4,None,
n,m,Control,S,C,T,Square,Circle,Triangle,air,sky,earth,Air,Earth,Earth,words,word,earth,sky,Sky,No,,,,,,,0,0,0,0,0,0,0,0,0,0,0,0,,,,,2,11,35,4,,,,,,,,,,,,,,,,,,,,,,,,,,None,None,146.121841375003,146.2637760840007,146.121841375003,146.2637760840007,146.121841375003,146.2637760840007,m,1,1.0333551239964436,146.121841375003,None,146.121841375003,146.2637760840007,0.766,147.16905204200157,None,147.9382091669977,None,None,None,None,None,,,,,,,,,2,B,02,2022-12-06_10h53.40.329,AssociativeLearning_v2,2022.1.4,None,
n,m,Control,S,C,T,Square,Circle,Triangle,air,sky,earth,Air,Earth,Earth,words,word,earth,earth,Earth,Yes,,,,,,,0,0,0,0,0,0,0,0,0,0,0,0,,,,,3,0,36,3,,,,,,,,,,,,,,,,,,,,,,,,,,None,None,148.19123354199837,148.33700412500184,148.19123354199837,148.33700412500184,148.19123354199837,148.33700412500184,None,0,,148.19123354199837,None,148.19123354199837,148.33700412500184,0.601,149.6948103340037,None,150.29376654200314,None,None,None,None,None,,,,,,,,,2,B,02,2022-12-06_10h53.40.329,AssociativeLearning_v2,2022.1.4,None,
n,m,Control,S,C,T,Square,Circle,Triangle,air,sky,earth,Air,Earth,Earth,words,word,air,air,Air,Yes,,,,,,,0,0,0,0,0,0,0,0,0,0,0,0,,,,,3,1,37,6,,,,,,,,,,,,,,,,,,,,,,,,,,None,None,150.55512112499855,150.70229783400282,150.55512112499855,150.70229783400282,150.55512112499855,150.70229783400282,n,1,1.1221162499932689,150.55512112499855,None,150.55512112499855,150.70229783400282,0.879,151.6921982089989,None,152.56795033399976,None,None,None,None,None,,,,,,,,,2,B,02,2022-12-06_10h53.40.329,AssociativeLearning_v2,2022.1.4,None,
n,m,Control,S,C,T,Square,Circle,Triangle,air,sky,earth,Air,Earth,Earth,words,word,air,air,Air,Yes,,,,,,,0,0,0,0,0,0,0,0,0,0,0,0,,,,,3,2,38,11,,,,,,,,,,,,,,,,,,,,,,,,,,None,None,152.82274187500298,152.9723442090035,152.82274187500298,152.9723442090035,152.82274187500298,152.9723442090035,n,1,0.4981203739953344,152.82274187500298,None,152.82274187500298,152.9723442090035,0.765,153.3353356669977,None,154.09148545900098,None,None,None,None,None,,,,,,,,,2,B,02,2022-12-06_10h53.40.329,AssociativeLearning_v2,2022.1.4,None,
n,m,Control,S,C,T,Square,Circle,Triangle,air,sky,earth,Air,Earth,Earth,words,word,sky,sky,Sky,Yes,,,,,,,0,0,0,0,0,0,0,0,0,0,0,0,,,,,3,3,39,9,,,,,,,,,,,,,,,,,,,,,,,,,,None,None,154.34849154200492,154.49527795900212,154.34849154200492,154.49527795900212,154.34849154200492,154.49527795900212,n,1,1.1593217499976163,154.34849154200492,None,154.34849154200492,154.49527795900212,0.731,155.5248425000027,None,156.25520279200282,None,None,None,None,None,,,,,,,,,2,B,02,2022-12-06_10h53.40.329,AssociativeLearning_v2,2022.1.4,None,
n,m,Control,S,C,T,Square,Circle,Triangle,air,sky,earth,Air,Earth,Earth,words,word,sky,sky,Sky,Yes,,,,,,,0,0,0,0,0,0,0,0,0,0,0,0,,,,,3,4,40,0,,,,,,,,,,,,,,,,,,,,,,,,,,None,None,156.50960020899947,156.65759258400067,156.50960020899947,156.65759258400067,156.50960020899947,156.65759258400067,n,1,0.4863725830000476,156.50960020899947,None,156.50960020899947,156.65759258400067,0.843,157.00917945900437,None,157.85118391700234,None,None,None,None,None,,,,,,,,,2,B,02,2022-12-06_10h53.40.329,AssociativeLearning_v2,2022.1.4,None,
n,m,Control,S,C,T,Square,Circle,Triangle,air,sky,earth,Air,Earth,Earth,words,word,air,sky,Sky,No,,,,,,,0,0,0,0,0,0,0,0,0,0,0,0,,,,,3,5,41,7,,,,,,,,,,,,,,,,,,,,,,,,,,None,None,158.11361270899943,158.25424049999856,158.11361270899943,158.25424049999856,158.11361270899943,158.25424049999856,m,1,0.6935246659995755,158.11361270899943,None,158.11361270899943,158.25424049999856,0.612,158.83336874999804,None,159.44235874999868,None,None,None,None,None,,,,,,,,,2,B,02,2022-12-06_10h53.40.329,AssociativeLearning_v2,2022.1.4,None,
n,m,Control,S,C,T,Square,Circle,Triangle,air,sky,earth,Air,Earth,Earth,words,word,earth,air,Air,No,,,,,,,0,0,0,0,0,0,0,0,0,0,0,0,,,,,3,6,42,5,,,,,,,,,,,,,,,,,,,,,,,,,,None,None,159.69989345900103,159.84609141699912,159.69989345900103,159.84609141699912,159.69989345900103,159.84609141699912,n,0,1.1122611659957329,159.69989345900103,None,159.69989345900103,159.84609141699912,0.558,160.82440529199812,None,161.3796823340017,None,None,None,None,None,,,,,,,,,2,B,02,2022-12-06_10h53.40.329,AssociativeLearning_v2,2022.1.4,None,
n,m,Control,S,C,T,Square,Circle,Triangle,air,sky,earth,Air,Earth,Earth,words,word,sky,earth,Earth,No,,,,,,,0,0,0,0,0,0,0,0,0,0,0,0,,,,,3,7,43,1,,,,,,,,,,,,,,,,,,,,,,,,,,None,None,161.64051674999791,161.78850395900372,161.64051674999791,161.78850395900372,161.64051674999791,161.78850395900372,m,1,0.98779699899751,161.64051674999791,None,161.64051674999791,161.78850395900372,0.624,162.64019429199834,None,163.26858116700168,None,None,None,None,None,,,,,,,,,2,B,02,2022-12-06_10h53.40.329,AssociativeLearning_v2,2022.1.4,None,
n,m,Control,S,C,T,Square,Circle,Triangle,air,sky,earth,Air,Earth,Earth,words,word,earth,earth,Earth,Yes,,,,,,,0,0,0,0,0,0,0,0,0,0,0,0,,,,,3,8,44,10,,,,,,,,,,,,,,,,,,,,,,,,,,None,None,163.5291531670009,163.67708854200464,163.5291531670009,163.67708854200464,163.5291531670009,163.67708854200464,None,0,,163.5291531670009,None,163.5291531670009,163.67708854200464,0.812,165.02086279200012,None,165.82880587500404,None,None,None,None,None,,,,,,,,,2,B,02,2022-12-06_10h53.40.329,AssociativeLearning_v2,2022.1.4,None,
n,m,Control,S,C,T,Square,Circle,Triangle,air,sky,earth,Air,Earth,Earth,words,word,earth,sky,Sky,No,,,,,,,0,0,0,0,0,0,0,0,0,0,0,0,,,,,3,9,45,4,,,,,,,,,,,,,,,,,,,,,,,,,,None,None,166.08213241700287,166.22828895899875,166.08213241700287,166.22828895899875,166.08213241700287,166.22828895899875,m,1,1.0830967069996404,166.08213241700287,None,166.08213241700287,166.22828895899875,0.615,167.18018466699868,None,167.78796454200346,None,None,None,None,None,,,,,,,,,2,B,02,2022-12-06_10h53.40.329,AssociativeLearning_v2,2022.1.4,None,
n,m,Control,S,C,T,Square,Circle,Triangle,air,sky,earth,Air,Earth,Earth,words,word,air,earth,Earth,No,,,,,,,0,0,0,0,0,0,0,0,0,0,0,0,,,,,3,10,46,8,,,,,,,,,,,,,,,,,,,,,,,,,,None,None,168.04664725000475,168.18674958399788,168.04664725000475,168.18674958399788,168.04664725000475,168.18674958399788,n,0,0.7490466239978559,168.04664725000475,None,168.04664725000475,168.18674958399788,0.88,168.81204279200028,None,169.68870833400433,None,None,None,None,None,,,,,,,,,2,B,02,2022-12-06_10h53.40.329,AssociativeLearning_v2,2022.1.4,None,
n,m,Control,S,C,T,Square,Circle,Triangle,air,sky,earth,Air,Earth,Earth,words,word,sky,air,Air,No,,,,,,,0,0,0,0,0,0,0,0,0,0,0,0,,,,,3,11,47,2,,,,,,,,,,,,,,,,,,,,,,,,,,None,None,169.94585033399926,170.09409108399996,169.94585033399926,170.09409108399996,169.94585033399926,170.09409108399996,m,1,0.9576133750015288,169.94585033399926,None,169.94585033399926,170.09409108399996,0.544,170.91529241700482,None,171.45194687500043,None,None,None,None,None,,,,,,,,,2,B,02,2022-12-06_10h53.40.329,AssociativeLearning_v2,2022.1.4,None,
n,m,Control,S,C,T,Square,Circle,Triangle,air,sky,earth,Air,Earth,Earth,words,word,earth,sky,Sky,No,,,,,,,0,0,0,0,0,0,0,0,0,0,0,0,,,,,4,0,48,4,,,,,,,,,,,,,,,,,,,,,,,,,,None,None,171.71283425000001,171.85917066700495,171.71283425000001,171.85917066700495,171.71283425000001,171.85917066700495,m,1,0.8907981239972287,171.71283425000001,None,171.71283425000001,171.85917066700495,0.868,172.61790804200427,None,173.48468575000152,None,None,None,None,None,,,,,,,,,2,B,02,2022-12-06_10h53.40.329,AssociativeLearning_v2,2022.1.4,None,
n,m,Control,S,C,T,Square,Circle,Triangle,air,sky,earth,Air,Earth,Earth,words,word,air,sky,Sky,No,,,,,,,0,0,0,0,0,0,0,0,0,0,0,0,,,,,4,1,49,7,,,,,,,,,,,,,,,,,,,,,,,,,,None,None,173.74687637500028,173.88919537499896,173.74687637500028,173.88919537499896,173.74687637500028,173.88919537499896,m,1,0.9858228739976767,173.74687637500028,None,173.74687637500028,173.88919537499896,0.795,174.75468562500464,None,175.54904700000043,None,None,None,None,None,,,,,,,,,2,B,02,2022-12-06_10h53.40.329,AssociativeLearning_v2,2022.1.4,None,
n,m,Control,S,C,T,Square,Circle,Triangle,air,sky,earth,Air,Earth,Earth,words,word,air,earth,Earth,No,,,,,,,0,0,0,0,0,0,0,0,0,0,0,0,,,,,4,2,50,8,,,,,,,,,,,,,,,,,,,,,,,,,,None,None,175.801303500004,175.94906812500267,175.801303500004,175.94906812500267,175.801303500004,175.94906812500267,m,1,1.1600582069950178,175.801303500004,None,175.801303500004,175.94906812500267,0.536,176.9732432919991,None,177.5071776670011,None,None,None,None,None,,,,,,,,,2,B,02,2022-12-06_10h53.40.329,AssociativeLearning_v2,2022.1.4,None,
n,m,Control,S,C,T,Square,Circle,Triangle,air,sky,earth,Air,Earth,Earth,words,word,sky,sky,Sky,Yes,,,,,,,0,0,0,0,0,0,0,0,0,0,0,0,,,,,4,3,51,0,,,,,,,,,,,,,,,,,,,,,,,,,,None,None,177.76706304200343,177.91539433399885,177.76706304200343,177.91539433399885,177.76706304200343,177.91539433399885,m,0,0.7126550829925691,177.76706304200343,None,177.76706304200343,177.91539433399885,0.717,178.49602766700264,None,179.20772058400325,None,None,None,None,None,,,,,,,,,2,B,02,2022-12-06_10h53.40.329,AssociativeLearning_v2,2022.1.4,None,
n,m,Control,S,C,T,Square,Circle,Triangle,air,sky,earth,Air,Earth,Earth,words,word,sky,sky,Sky,Yes,,,,,,,0,0,0,0,0,0,0,0,0,0,0,0,,,,,4,4,52,9,,,,,,,,,,,,,,,,,,,,,,,,,,None,None,179.46055629200418,179.6086573749999,179.46055629200418,179.6086573749999,179.46055629200418,179.6086573749999,None,0,,179.46055629200418,None,179.46055629200418,179.6086573749999,0.633,180.95759633400303,None,181.59386274999997,None,None,None,None,None,,,,,,,,,2,B,02,2022-12-06_10h53.40.329,AssociativeLearning_v2,2022.1.4,None,
n,m,Control,S,C,T,Square,Circle,Triangle,air,sky,earth,Air,Earth,Earth,words,word,sky,air,Air,No,,,,,,,0,0,0,0,0,0,0,0,0,0,0,0,,,,,4,5,53,2,,,,,,,,,,,,,,,,,,,,,,,,,,None,None,181.85172779200366,181.9989035000035,181.85172779200366,181.9989035000035,181.85172779200366,181.9989035000035,n,0,0.6297152079932857,181.85172779200366,None,181.85172779200366,181.9989035000035,0.844,182.5074590840013,None,183.34486825000204,None,None,None,None,None,,,,,,,,,2,B,02,2022-12-06_10h53.40.329,AssociativeLearning_v2,2022.1.4,None,
n,m,Control,S,C,T,Square,Circle,Triangle,air,sky,earth,Air,Earth,Earth,words,word,earth,air,Air,No,,,,,,,0,0,0,0,0,0,0,0,0,0,0,0,,,,,4,6,54,5,,,,,,,,,,,,,,,,,,,,,,,,,,None,None,183.60458412500157,183.75142554200283,183.60458412500157,183.75142554200283,183.60458412500157,183.75142554200283,n,0,0.9898712079957477,183.60458412500157,None,183.60458412500157,183.75142554200283,0.633,184.6067506670006,None,185.23153554199962,None,None,None,None,None,,,,,,,,,2,B,02,2022-12-06_10h53.40.329,AssociativeLearning_v2,2022.1.4,None,
n,m,Control,S,C,T,Square,Circle,Triangle,air,sky,earth,Air,Earth,Earth,words,word,air,air,Air,Yes,,,,,,,0,0,0,0,0,0,0,0,0,0,0,0,,,,,4,7,55,11,,,,,,,,,,,,,,,,,,,,,,,,,,None,None,185.48831504199916,185.63552695899853,185.48831504199916,185.63552695899853,185.48831504199916,185.63552695899853,m,0,0.40638583300460596,185.48831504199916,None,185.48831504199916,185.63552695899853,0.805,185.91626391700265,None,186.71405762500217,None,None,None,None,None,,,,,,,,,2,B,02,2022-12-06_10h53.40.329,AssociativeLearning_v2,2022.1.4,None,
n,m,Control,S,C,T,Square,Circle,Triangle,air,sky,earth,Air,Earth,Earth,words,word,air,air,Air,Yes,,,,,,,0,0,0,0,0,0,0,0,0,0,0,0,,,,,4,8,56,6,,,,,,,,,,,,,,,,,,,,,,,,,,None,None,186.9676803340044,187.1118075839986,186.9676803340044,187.1118075839986,186.9676803340044,187.1118075839986,n,1,0.8413466659985716,186.9676803340044,None,186.9676803340044,187.1118075839986,0.839,187.82150804199773,None,188.65920154200285,None,None,None,None,None,,,,,,,,,2,B,02,2022-12-06_10h53.40.329,AssociativeLearning_v2,2022.1.4,None,
n,m,Control,S,C,T,Square,Circle,Triangle,air,sky,earth,Air,Earth,Earth,words,word,earth,earth,Earth,Yes,,,,,,,0,0,0,0,0,0,0,0,0,0,0,0,,,,,4,9,57,10,,,,,,,,,,,,,,,,,,,,,,,,,,None,None,188.9171331250036,189.0650565420001,188.9171331250036,189.0650565420001,188.9171331250036,189.0650565420001,m,0,0.6117918329982786,188.9171331250036,None,188.9171331250036,189.0650565420001,0.855,189.54067779199977,None,190.3894975420044,None,None,None,None,None,,,,,,,,,2,B,02,2022-12-06_10h53.40.329,AssociativeLearning_v2,2022.1.4,None,
n,m,Control,S,C,T,Square,Circle,Triangle,air,sky,earth,Air,Earth,Earth,words,word,earth,earth,Earth,Yes,,,,,,,0,0,0,0,0,0,0,0,0,0,0,0,,,,,4,10,58,3,,,,,,,,,,,,,,,,,,,,,,,,,,None,None,190.64333766700292,190.78996033400472,190.64333766700292,190.78996033400472,190.64333766700292,190.78996033400472,n,1,0.6220659989994601,190.64333766700292,None,190.64333766700292,190.78996033400472,0.597,191.27838112500467,None,191.87754037500417,None,None,None,None,None,,,,,,,,,2,B,02,2022-12-06_10h53.40.329,AssociativeLearning_v2,2022.1.4,None,
n,m,Control,S,C,T,Square,Circle,Triangle,air,sky,earth,Air,Earth,Earth,words,word,sky,earth,Earth,No,,,,,,,0,0,0,0,0,0,0,0,0,0,0,0,,,,,4,11,59,1,,,,,,,,,,,,,,,,,,,,,,,,,,None,None,192.14089041700208,192.28693641700374,192.14089041700208,192.28693641700374,192.14089041700208,192.28693641700374,m,1,0.7161290000003646,192.14089041700208,None,192.14089041700208,192.28693641700374,0.788,192.87764762499864,None,193.65482404200156,None,None,None,None,None,,,,,,,,,2,B,02,2022-12-06_10h53.40.329,AssociativeLearning_v2,2022.1.4,None,
n,m,Control,S,C,T,Square,Circle,Triangle,air,sky,earth,Air,Earth,Earth,words,word,air,air,Air,Yes,,,,,,,0,0,0,0,0,0,0,0,0,0,0,0,,,,,5,0,60,11,,,,,,,,,,,,,,,,,,,,,,,,,,193.8965728750045,None,194.16435645900492,194.31193012500444,194.16435645900492,194.31193012500444,194.16435645900492,194.31193012500444,None,0,,194.16435645900492,None,194.16435645900492,194.31193012500444,0.61,195.6670468750017,None,196.27952062500117,None,None,None,None,None,,,,,,,,,2,B,02,2022-12-06_10h53.40.329,AssociativeLearning_v2,2022.1.4,None,
n,m,Control,S,C,T,Square,Circle,Triangle,air,sky,earth,Air,Earth,Earth,words,word,earth,sky,Sky,No,,,,,,,0,0,0,0,0,0,0,0,0,0,0,0,,,,,5,1,61,4,,,,,,,,,,,,,,,,,,,,,,,,,,None,None,196.5345628340001,196.68258241700096,196.5345628340001,196.68258241700096,196.5345628340001,196.68258241700096,m,1,1.0033087499978137,196.5345628340001,None,196.5345628340001,196.68258241700096,0.777,197.55556837499898,None,198.33754958400095,None,None,None,None,None,,,,,,,,,2,B,02,2022-12-06_10h53.40.329,AssociativeLearning_v2,2022.1.4,None,
n,m,Control,S,C,T,Square,Circle,Triangle,air,sky,earth,Air,Earth,Earth,words,word,sky,air,Air,No,,,,,,,0,0,0,0,0,0,0,0,0,0,0,0,,,,,5,2,62,2,,,,,,,,,,,,,,,,,,,,,,,,,,None,None,198.59159345900116,198.73680816699925,198.59159345900116,198.73680816699925,198.59159345900116,198.73680816699925,m,1,0.8427154570017592,198.59159345900116,None,198.59159345900116,198.73680816699925,0.547,199.4542406670007,None,199.99743533400033,None,None,None,None,None,,,,,,,,,2,B,02,2022-12-06_10h53.40.329,AssociativeLearning_v2,2022.1.4,None,
n,m,Control,S,C,T,Square,Circle,Triangle,air,sky,earth,Air,Earth,Earth,words,word,air,earth,Earth,No,,,,,,,0,0,0,0,0,0,0,0,0,0,0,0,,,,,5,3,63,8,,,,,,,,,,,,,,,,,,,,,,,,,,None,None,200.25369729199883,200.40183579199947,200.25369729199883,200.40183579199947,200.25369729199883,200.40183579199947,n,0,0.88315529099782,200.25369729199883,None,200.25369729199883,200.40183579199947,0.522,201.15042945900495,None,201.6712947920023,None,None,None,None,None,,,,,,,,,2,B,02,2022-12-06_10h53.40.329,AssociativeLearning_v2,2022.1.4,None,
n,m,Control,S,C,T,Square,Circle,Triangle,air,sky,earth,Air,Earth,Earth,words,word,air,sky,Sky,No,,,,,,,0,0,0,0,0,0,0,0,0,0,0,0,,,,,5,4,64,7,,,,,,,,,,,,,,,,,,,,,,,,,,None,None,201.93037991700112,202.07014187500317,201.93037991700112,202.07014187500317,201.93037991700112,202.07014187500317,None,0,,201.93037991700112,None,201.93037991700112,202.07014187500317,0.563,203.42385033400205,None,203.98416995900334,None,None,None,None,None,,,,,,,,,2,B,02,2022-12-06_10h53.40.329,AssociativeLearning_v2,2022.1.4,None,
n,m,Control,S,C,T,Square,Circle,Triangle,air,sky,earth,Air,Earth,Earth,words,word,sky,earth,Earth,No,,,,,,,0,0,0,0,0,0,0,0,0,0,0,0,,,,,5,5,65,1,,,,,,,,,,,,,,,,,,,,,,,,,,None,None,204.2466503340038,204.39276700000482,204.2466503340038,204.39276700000482,204.2466503340038,204.39276700000482,None,0,,204.2466503340038,None,204.2466503340038,204.39276700000482,0.795,205.74890112499997,None,206.54166454200458,None,None,None,None,None,,,,,,,,,2,B,02,2022-12-06_10h53.40.329,AssociativeLearning_v2,2022.1.4,None,
n,m,Control,S,C,T,Square,Circle,Triangle,air,sky,earth,Air,Earth,Earth,words,word,air,air,Air,Yes,,,,,,,0,0,0,0,0,0,0,0,0,0,0,0,,,,,5,6,66,6,,,,,,,,,,,,,,,,,,,,,,,,,,None,None,206.80032666699844,206.94580479199794,206.80032666699844,206.94580479199794,206.80032666699844,206.94580479199794,None,0,,206.80032666699844,None,206.80032666699844,206.94580479199794,0.804,208.29992962499819,None,209.1011233340032,None,None,None,None,None,,,,,,,,,2,B,02,2022-12-06_10h53.40.329,AssociativeLearning_v2,2022.1.4,None,
n,m,Control,S,C,T,Square,Circle,Triangle,air,sky,earth,Air,Earth,Earth,words,word,earth,air,Air,No,,,,,,,0,0,0,0,0,0,0,0,0,0,0,0,,,,,5,7,67,5,,,,,,,,,,,,,,,,,,,,,,,,,,None,None,209.35845162500482,209.50441929200315,209.35845162500482,209.50441929200315,209.35845162500482,209.50441929200315,n,0,0.7472244579912513,209.35845162500482,None,209.35845162500482,209.50441929200315,0.685,210.118617250002,None,210.79665858400404,None,None,None,None,None,,,,,,,,,2,B,02,2022-12-06_10h53.40.329,AssociativeLearning_v2,2022.1.4,None,
n,m,Control,S,C,T,Square,Circle,Triangle,air,sky,earth,Air,Earth,Earth,words,word,earth,earth,Earth,Yes,,,,,,,0,0,0,0,0,0,0,0,0,0,0,0,,,,,5,8,68,10,,,,,,,,,,,,,,,,,,,,,,,,,,None,None,211.05125612499978,211.19963354200445,211.05125612499978,211.19963354200445,211.05125612499978,211.19963354200445,None,0,,211.05125612499978,None,211.05125612499978,211.19963354200445,0.684,212.5539692500024,None,213.23079320900433,None,None,None,None,None,,,,,,,,,2,B,02,2022-12-06_10h53.40.329,AssociativeLearning_v2,2022.1.4,None,
n,m,Control,S,C,T,Square,Circle,Triangle,air,sky,earth,Air,Earth,Earth,words,word,sky,sky,Sky,Yes,,,,,,,0,0,0,0,0,0,0,0,0,0,0,0,,,,,5,9,69,9,,,,,,,,,,,,,,,,,,,,,,,,,,None,None,213.49652508400322,213.63843637500395,213.49652508400322,213.63843637500395,213.49652508400322,213.63843637500395,m,0,0.5486717910025618,213.49652508400322,None,213.49652508400322,213.63843637500395,0.871,214.05852425000194,None,214.9223512919998,None,None,None,None,None,,,,,,,,,2,B,02,2022-12-06_10h53.40.329,AssociativeLearning_v2,2022.1.4,None,
n,m,Control,S,C,T,Square,Circle,Triangle,air,sky,earth,Air,Earth,Earth,words,word,sky,sky,Sky,Yes,,,,,,,0,0,0,0,0,0,0,0,0,0,0,0,,,,,5,10,70,0,,,,,,,,,,,,,,,,,,,,,,,,,,None,None,215.17710266700306,215.32522812500247,215.17710266700306,215.32522812500247,215.17710266700306,215.32522812500247,None,0,,215.17710266700306,None,215.17710266700306,215.32522812500247,0.638,216.6753233749987,None,217.30867079200107,None,None,None,None,None,,,,,,,,,2,B,02,2022-12-06_10h53.40.329,AssociativeLearning_v2,2022.1.4,None,
n,m,Control,S,C,T,Square,Circle,Triangle,air,sky,earth,Air,Earth,Earth,words,word,earth,earth,Earth,Yes,,,,,,,0,0,0,0,0,0,0,0,0,0,0,0,,,,,5,11,71,3,,,,,,,,,,,,,,,,,,,,,,,,,,None,None,217.56681379200018,217.7129732090034,217.56681379200018,217.7129732090034,217.56681379200018,217.7129732090034,m,0,0.9088642490023631,217.56681379200018,None,217.56681379200018,217.7129732090034,0.827,218.48784770900238,None,219.30965175000165,None,None,None,None,None,,,,,,,,,2,B,02,2022-12-06_10h53.40.329,AssociativeLearning_v2,2022.1.4,None,
n,m,Control,S,C,T,Square,Circle,Triangle,air,sky,earth,Air,Earth,Earth,words,word,earth,earth,Earth,Yes,,,,,,,0,0,0,0,0,0,0,0,0,0,0,0,,,,,6,0,72,3,,,,,,,,,,,,,,,,,,,,,,,,,,None,None,219.5691420420044,219.71732520899968,219.5691420420044,219.71732520899968,219.5691420420044,219.71732520899968,n,1,0.9553410410007928,219.5691420420044,None,219.5691420420044,219.71732520899968,0.736,220.55027720900398,None,221.285003625002,None,221.542141250666,None,221.542141250666,None,,,,,,,,,2,B,02,2022-12-06_10h53.40.329,AssociativeLearning_v2,2022.1.4,None,
n,m,Control,S,C,T,Square,Circle,Triangle,air,sky,earth,Air,Earth,Earth,words,word,air,air,Air,Yes,,,,,,,0,0,0,0,0,0,0,0,0,0,0,0,,,,,6,1,73,6,,,,,,,,,,,,,,,,,,,,,,,,,,None,None,221.5428952920047,221.68011929200293,221.5428952920047,221.68011929200293,221.5428952920047,221.68011929200293,m,0,0.6724042080022627,221.5428952920047,None,221.5428952920047,221.68011929200293,0.773,222.2416687090008,None,223.0187529590039,None,None,None,None,None,,,,,,,,,2,B,02,2022-12-06_10h53.40.329,AssociativeLearning_v2,2022.1.4,None,
n,m,Control,S,C,T,Square,Circle,Triangle,air,sky,earth,Air,Earth,Earth,words,word,air,air,Air,Yes,,,,,,,0,0,0,0,0,0,0,0,0,0,0,0,,,,,6,2,74,11,,,,,,,,,,,,,,,,,,,,,,,,,,None,None,223.27735529200436,223.4248105000006,223.27735529200436,223.4248105000006,223.27735529200436,223.4248105000006,n,1,0.9786869579984341,223.27735529200436,None,223.27735529200436,223.4248105000006,0.832,224.27175791699847,None,225.09748783399846,None,None,None,None,None,,,,,,,,,2,B,02,2022-12-06_10h53.40.329,AssociativeLearning_v2,2022.1.4,None,
n,m,Control,S,C,T,Square,Circle,Triangle,air,sky,earth,Air,Earth,Earth,words,word,air,sky,Sky,No,,,,,,,0,0,0,0,0,0,0,0,0,0,0,0,,,,,6,3,75,7,,,,,,,,,,,,,,,,,,,,,,,,,,None,None,225.35287395900377,225.5009227920018,225.35287395900377,225.5009227920018,225.35287395900377,225.5009227920018,m,1,0.5833322499966016,225.35287395900377,None,225.35287395900377,225.5009227920018,0.794,225.94803562499874,None,226.74148279200017,None,None,None,None,None,,,,,,,,,2,B,02,2022-12-06_10h53.40.329,AssociativeLearning_v2,2022.1.4,None,
n,m,Control,S,C,T,Square,Circle,Triangle,air,sky,earth,Air,Earth,Earth,words,word,earth,sky,Sky,No,,,,,,,0,0,0,0,0,0,0,0,0,0,0,0,,,,,6,4,76,4,,,,,,,,,,,,,,,,,,,,,,,,,,None,None,226.99970441700134,227.1395198340033,226.99970441700134,227.1395198340033,226.99970441700134,227.1395198340033,m,1,0.9410510409943527,226.99970441700134,None,226.99970441700134,227.1395198340033,0.764,227.96511162500246,None,228.72444229200482,None,None,None,None,None,,,,,,,,,2,B,02,2022-12-06_10h53.40.329,AssociativeLearning_v2,2022.1.4,None,
n,m,Control,S,C,T,Square,Circle,Triangle,air,sky,earth,Air,Earth,Earth,words,word,earth,earth,Earth,Yes,,,,,,,0,0,0,0,0,0,0,0,0,0,0,0,,,,,6,5,77,10,,,,,,,,,,,,,,,,,,,,,,,,,,None,None,228.98019524999836,229.1200513340009,228.98019524999836,229.1200513340009,228.98019524999836,229.1200513340009,n,1,0.9742181659967173,228.98019524999836,None,228.98019524999836,229.1200513340009,0.525,229.97178412500216,None,230.4916741670022,None,None,None,None,None,,,,,,,,,2,B,02,2022-12-06_10h53.40.329,AssociativeLearning_v2,2022.1.4,None,
n,m,Control,S,C,T,Square,Circle,Triangle,air,sky,earth,Air,Earth,Earth,words,word,air,earth,Earth,No,,,,,,,0,0,0,0,0,0,0,0,0,0,0,0,,,,,6,6,78,8,,,,,,,,,,,,,,,,,,,,,,,,,,None,None,230.74885083400295,230.8952122089977,230.74885083400295,230.8952122089977,230.74885083400295,230.8952122089977,m,1,0.7125145829995745,230.74885083400295,None,230.74885083400295,230.8952122089977,0.576,231.47492104199773,None,232.04974404200038,None,None,None,None,None,,,,,,,,,2,B,02,2022-12-06_10h53.40.329,AssociativeLearning_v2,2022.1.4,None,
n,m,Control,S,C,T,Square,Circle,Triangle,air,sky,earth,Air,Earth,Earth,words,word,sky,sky,Sky,Yes,,,,,,,0,0,0,0,0,0,0,0,0,0,0,0,,,,,6,7,79,0,,,,,,,,,,,,,,,,,,,,,,,,,,None,None,232.31312604199775,232.45291445899784,232.31312604199775,232.45291445899784,232.31312604199775,232.45291445899784,n,1,1.3805916240016813,232.31312604199775,None,232.31312604199775,232.45291445899784,0.803,233.7164953340034,None,234.51508220899996,None,None,None,None,None,,,,,,,,,2,B,02,2022-12-06_10h53.40.329,AssociativeLearning_v2,2022.1.4,None,
n,m,Control,S,C,T,Square,Circle,Triangle,air,sky,earth,Air,Earth,Earth,words,word,sky,sky,Sky,Yes,,,,,,,0,0,0,0,0,0,0,0,0,0,0,0,,,,,6,8,80,9,,,,,,,,,,,,,,,,,,,,,,,,,,None,None,234.76770262500213,234.91253183400113,234.76770262500213,234.91253183400113,234.76770262500213,234.91253183400113,n,1,0.8451892080047401,234.76770262500213,None,234.76770262500213,234.91253183400113,0.635,235.62419883400435,None,236.24855450000177,None,None,None,None,None,,,,,,,,,2,B,02,2022-12-06_10h53.40.329,AssociativeLearning_v2,2022.1.4,None,
n,m,Control,S,C,T,Square,Circle,Triangle,air,sky,earth,Air,Earth,Earth,words,word,earth,air,Air,No,,,,,,,0,0,0,0,0,0,0,0,0,0,0,0,,,,,6,9,81,5,,,,,,,,,,,,,,,,,,,,,,,,,,None,None,236.50494875000004,236.65201462500409,236.50494875000004,236.65201462500409,236.50494875000004,236.65201462500409,n,0,0.740505874993687,236.50494875000004,None,236.50494875000004,236.65201462500409,0.887,237.25691333400027,None,238.13812908399996,None,None,None,None,None,,,,,,,,,2,B,02,2022-12-06_10h53.40.329,AssociativeLearning_v2,2022.1.4,None,
n,m,Control,S,C,T,Square,Circle,Triangle,air,sky,earth,Air,Earth,Earth,words,word,sky,air,Air,No,,,,,,,0,0,0,0,0,0,0,0,0,0,0,0,,,,,6,10,82,2,,,,,,,,,,,,,,,,,,,,,,,,,,None,None,238.39614579200133,238.54307983400213,238.39614579200133,238.54307983400213,238.39614579200133,238.54307983400213,m,1,0.7607522069956758,238.39614579200133,None,238.39614579200133,238.54307983400213,0.663,239.18209975000354,None,239.8423664590009,None,None,None,None,None,,,,,,,,,2,B,02,2022-12-06_10h53.40.329,AssociativeLearning_v2,2022.1.4,None,
n,m,Control,S,C,T,Square,Circle,Triangle,air,sky,earth,Air,Earth,Earth,words,word,sky,earth,Earth,No,,,,,,,0,0,0,0,0,0,0,0,0,0,0,0,,,,,6,11,83,1,,,,,,,,,,,,,,,,,,,,,,,,,,None,None,240.09688537500188,240.2368726670029,240.09688537500188,240.2368726670029,240.09688537500188,240.2368726670029,m,1,1.0305700829994748,240.09688537500188,None,240.09688537500188,240.2368726670029,0.898,241.14108095900156,None,242.03145304200007,None,None,None,None,None,,,,,,,,,2,B,02,2022-12-06_10h53.40.329,AssociativeLearning_v2,2022.1.4,None,
n,m,Control,S,C,T,Square,Circle,Triangle,air,sky,earth,Air,Earth,Earth,words,word,sky,air,Air,No,,,,,,,0,0,0,0,0,0,0,0,0,0,0,0,,,,,7,0,84,2,,,,,,,,,,,,,,,,,,,,,,,,,,None,None,242.28574233400286,242.43348245900415,242.28574233400286,242.43348245900415,242.28574233400286,242.43348245900415,m,1,1.2530087909981376,242.28574233400286,None,242.28574233400286,242.43348245900415,0.792,243.55746045900014,None,244.34024325000064,None,None,None,None,None,,,,,,,,,2,B,02,2022-12-06_10h53.40.329,AssociativeLearning_v2,2022.1.4,None,
n,m,Control,S,C,T,Square,Circle,Triangle,air,sky,earth,Air,Earth,Earth,words,word,earth,air,Air,No,,,,,,,0,0,0,0,0,0,0,0,0,0,0,0,,,,,7,1,85,5,,,,,,,,,,,,,,,,,,,,,,,,,,None,None,244.5975550420044,244.7460544170026,244.5975550420044,244.7460544170026,244.5975550420044,244.7460544170026,m,1,1.0471449159958865,244.5975550420044,None,244.5975550420044,244.7460544170026,0.688,245.65913633400487,None,246.3411381670012,None,None,None,None,None,,,,,,,,,2,B,02,2022-12-06_10h53.40.329,AssociativeLearning_v2,2022.1.4,None,
n,m,Control,S,C,T,Square,Circle,Triangle,air,sky,earth,Air,Earth,Earth,words,word,sky,sky,Sky,Yes,,,,,,,0,0,0,0,0,0,0,0,0,0,0,0,,,,,7,2,86,0,,,,,,,,,,,,,,,,,,,,,,,,,,None,None,246.59883229200204,246.74535808400105,246.59883229200204,246.74535808400105,246.59883229200204,246.74535808400105,n,1,0.6072969160013599,246.59883229200204,None,246.59883229200204,246.74535808400105,0.764,247.23133366700495,None,247.9925580420022,None,None,None,None,None,,,,,,,,,2,B,02,2022-12-06_10h53.40.329,AssociativeLearning_v2,2022.1.4,None,
n,m,Control,S,C,T,Square,Circle,Triangle,air,sky,earth,Air,Earth,Earth,words,word,air,earth,Earth,No,,,,,,,0,0,0,0,0,0,0,0,0,0,0,0,,,,,7,3,87,8,,,,,,,,,,,,,,,,,,,,,,,,,,None,None,248.25476645900198,248.40214295899932,248.25476645900198,248.40214295899932,248.25476645900198,248.40214295899932,n,0,0.9040165819969843,248.25476645900198,None,248.25476645900198,248.40214295899932,0.658,249.18288200000097,None,249.83458520899876,None,None,None,None,None,,,,,,,,,2,B,02,2022-12-06_10h53.40.329,AssociativeLearning_v2,2022.1.4,None,
n,m,Control,S,C,T,Square,Circle,Triangle,air,sky,earth,Air,Earth,Earth,words,word,air,sky,Sky,No,,,,,,,0,0,0,0,0,0,0,0,0,0,0,0,,,,,7,4,88,7,,,,,,,,,,,,,,,,,,,,,,,,,,None,None,250.0933753749996,250.24088320900046,250.0933753749996,250.24088320900046,250.0933753749996,250.24088320900046,m,1,0.490037707000738,250.0933753749996,None,250.0933753749996,250.24088320900046,0.665,250.60691037499782,None,251.26841799999966,None,None,None,None,None,,,,,,,,,2,B,02,2022-12-06_10h53.40.329,AssociativeLearning_v2,2022.1.4,None,
n,m,Control,S,C,T,Square,Circle,Triangle,air,sky,earth,Air,Earth,Earth,words,word,earth,earth,Earth,Yes,,,,,,,0,0,0,0,0,0,0,0,0,0,0,0,,,,,7,5,89,10,,,,,,,,,,,,,,,,,,,,,,,,,,None,None,251.5307002920017,251.67013208400022,251.5307002920017,251.67013208400022,251.5307002920017,251.67013208400022,m,0,0.8991434989948175,251.5307002920017,None,251.5307002920017,251.67013208400022,0.659,252.44610345899855,None,253.10043129200494,None,None,None,None,None,,,,,,,,,2,B,02,2022-12-06_10h53.40.329,AssociativeLearning_v2,2022.1.4,None,
n,m,Control,S,C,T,Square,Circle,Triangle,air,sky,earth,Air,Earth,Earth,words,word,sky,earth,Earth,No,,,,,,,0,0,0,0,0,0,0,0,0,0,0,0,,,,,7,6,90,1,,,,,,,,,,,,,,,,,,,,,,,,,,None,None,253.357679834,253.50351633399987,253.357679834,253.50351633399987,253.357679834,253.50351633399987,n,0,0.6625687490013661,253.357679834,None,253.357679834,253.50351633399987,0.518,254.03714270899945,None,254.5499752090036,None,None,None,None,None,,,,,,,,,2,B,02,2022-12-06_10h53.40.329,AssociativeLearning_v2,2022.1.4,None,
n,m,Control,S,C,T,Square,Circle,Triangle,air,sky,earth,Air,Earth,Earth,words,word,earth,sky,Sky,No,,,,,,,0,0,0,0,0,0,0,0,0,0,0,0,,,,,7,7,91,4,,,,,,,,,,,,,,,,,,,,,,,,,,None,None,254.8075106250035,254.95350541700464,254.8075106250035,254.95350541700464,254.8075106250035,254.95350541700464,m,1,0.9259971659994335,254.8075106250035,None,254.8075106250035,254.95350541700464,0.816,255.75401641699864,None,256.56796625000425,None,None,None,None,None,,,,,,,,,2,B,02,2022-12-06_10h53.40.329,AssociativeLearning_v2,2022.1.4,None,
n,m,Control,S,C,T,Square,Circle,Triangle,air,sky,earth,Air,Earth,Earth,words,word,air,air,Air,Yes,,,,,,,0,0,0,0,0,0,0,0,0,0,0,0,,,,,7,8,92,11,,,,,,,,,,,,,,,,,,,,,,,,,,None,None,256.8246745840006,256.9702755420003,256.8246745840006,256.9702755420003,256.8246745840006,256.9702755420003,n,1,1.0448841249963152,256.8246745840006,None,256.8246745840006,256.9702755420003,0.566,257.8804852500034,None,258.4486632920016,None,None,None,None,None,,,,,,,,,2,B,02,2022-12-06_10h53.40.329,AssociativeLearning_v2,2022.1.4,None,
n,m,Control,S,C,T,Square,Circle,Triangle,air,sky,earth,Air,Earth,Earth,words,word,sky,sky,Sky,Yes,,,,,,,0,0,0,0,0,0,0,0,0,0,0,0,,,,,7,9,93,9,,,,,,,,,,,,,,,,,,,,,,,,,,None,None,258.705156834003,258.8459729590031,258.705156834003,258.8459729590031,258.705156834003,258.8459729590031,n,1,1.1330138749981415,258.705156834003,None,258.705156834003,258.8459729590031,0.607,259.85011104200385,None,260.458727792,None,None,None,None,None,,,,,,,,,2,B,02,2022-12-06_10h53.40.329,AssociativeLearning_v2,2022.1.4,None,
n,m,Control,S,C,T,Square,Circle,Triangle,air,sky,earth,Air,Earth,Earth,words,word,earth,earth,Earth,Yes,,,,,,,0,0,0,0,0,0,0,0,0,0,0,0,,,,,7,10,94,3,,,,,,,,,,,,,,,,,,,,,,,,,,None,None,260.72213004199875,260.86406337500375,260.72213004199875,260.86406337500375,260.72213004199875,260.86406337500375,n,1,0.7560054999921704,260.72213004199875,None,260.72213004199875,260.86406337500375,0.76,261.48951387499983,None,262.24669549999817,None,None,None,None,None,,,,,,,,,2,B,02,2022-12-06_10h53.40.329,AssociativeLearning_v2,2022.1.4,None,
n,m,Control,S,C,T,Square,Circle,Triangle,air,sky,earth,Air,Earth,Earth,words,word,air,air,Air,Yes,,,,,,,0,0,0,0,0,0,0,0,0,0,0,0,,,,,7,11,95,6,,,,,,,,,,,,,,,,,,,,,,,,,,None,None,262.50157904200023,262.6490467920012,262.50157904200023,262.6490467920012,262.50157904200023,262.6490467920012,n,1,0.6770077080000192,262.50157904200023,None,262.50157904200023,262.6490467920012,0.66,263.19418058400333,None,263.8501816670032,None,None,None,None,None,,,,,,,,,2,B,02,2022-12-06_10h53.40.329,AssociativeLearning_v2,2022.1.4,None,
n,m,Control,S,C,T,Square,Circle,Triangle,air,sky,earth,Air,Earth,Earth,words,word,earth,sky,Sky,No,,,,,,,0,0,0,0,0,0,0,0,0,0,0,0,,,,,8,0,96,4,,,,,,,,,,,,,,,,,,,,,,,,,,None,None,264.1086410839998,264.2541300840021,264.1086410839998,264.2541300840021,264.1086410839998,264.2541300840021,m,1,1.185030831999029,264.1086410839998,None,264.1086410839998,264.2541300840021,0.516,265.3074239589987,None,265.8244241670036,None,None,None,None,None,,,,,,,,,2,B,02,2022-12-06_10h53.40.329,AssociativeLearning_v2,2022.1.4,None,
n,m,Control,S,C,T,Square,Circle,Triangle,air,sky,earth,Air,Earth,Earth,words,word,air,earth,Earth,No,,,,,,,0,0,0,0,0,0,0,0,0,0,0,0,,,,,8,1,97,8,,,,,,,,,,,,,,,,,,,,,,,,,,None,None,266.08232775000215,266.2281565000012,266.08232775000215,266.2281565000012,266.08232775000215,266.2281565000012,n,0,0.8726947909963201,266.08232775000215,None,266.08232775000215,266.2281565000012,0.55,266.9715806669992,None,267.5178891250034,None,None,None,None,None,,,,,,,,,2,B,02,2022-12-06_10h53.40.329,AssociativeLearning_v2,2022.1.4,None,
n,m,Control,S,C,T,Square,Circle,Triangle,air,sky,earth,Air,Earth,Earth,words,word,earth,earth,Earth,Yes,,,,,,,0,0,0,0,0,0,0,0,0,0,0,0,,,,,8,2,98,3,,,,,,,,,,,,,,,,,,,,,,,,,,None,None,267.7742032919996,267.92015399999946,267.7742032919996,267.92015399999946,267.7742032919996,267.92015399999946,n,1,0.9055987489991821,267.7742032919996,None,267.7742032919996,267.92015399999946,0.81,268.70686991700495,None,269.5115790839991,None,None,None,None,None,,,,,,,,,2,B,02,2022-12-06_10h53.40.329,AssociativeLearning_v2,2022.1.4,None,
n,m,Control,S,C,T,Square,Circle,Triangle,air,sky,earth,Air,Earth,Earth,words,word,air,air,Air,Yes,,,,,,,0,0,0,0,0,0,0,0,0,0,0,0,,,,,8,3,99,6,,,,,,,,,,,,,,,,,,,,,,,,,,None,None,269.7732912920037,269.9202824590029,269.7732912920037,269.9202824590029,269.7732912920037,269.9202824590029,n,1,0.798922082001809,269.7732912920037,None,269.7732912920037,269.9202824590029,0.693,270.5857075000022,None,271.27258516700385,None,None,None,None,None,,,,,,,,,2,B,02,2022-12-06_10h53.40.329,AssociativeLearning_v2,2022.1.4,None,
n,m,Control,S,C,T,Square,Circle,Triangle,air,sky,earth,Air,Earth,Earth,words,word,earth,air,Air,No,,,,,,,0,0,0,0,0,0,0,0,0,0,0,0,,,,,8,4,100,5,,,,,,,,,,,,,,,,,,,,,,,,,,None,None,271.5300395000013,271.6701714170049,271.5300395000013,271.6701714170049,271.5300395000013,271.6701714170049,m,1,0.9578321250010049,271.5300395000013,None,271.5300395000013,271.6701714170049,0.77,272.5044270840008,None,273.2659845419985,None,None,None,None,None,,,,,,,,,2,B,02,2022-12-06_10h53.40.329,AssociativeLearning_v2,2022.1.4,None,
n,m,Control,S,C,T,Square,Circle,Triangle,air,sky,earth,Air,Earth,Earth,words,word,earth,earth,Earth,Yes,,,,,,,0,0,0,0,0,0,0,0,0,0,0,0,,,,,8,5,101,10,,,,,,,,,,,,,,,,,,,,,,,,,,None,None,273.5195661250036,273.667076042002,273.5195661250036,273.667076042002,273.5195661250036,273.667076042002,n,1,1.0087776240034145,273.5195661250036,None,273.5195661250036,273.667076042002,0.771,274.54041662500094,None,275.30878154200036,None,None,None,None,None,,,,,,,,,2,B,02,2022-12-06_10h53.40.329,AssociativeLearning_v2,2022.1.4,None,
n,m,Control,S,C,T,Square,Circle,Triangle,air,sky,earth,Air,Earth,Earth,words,word,sky,air,Air,No,,,,,,,0,0,0,0,0,0,0,0,0,0,0,0,,,,,8,6,102,2,,,,,,,,,,,,,,,,,,,,,,,,,,None,None,275.57160524999927,275.7188210000022,275.57160524999927,275.7188210000022,275.57160524999927,275.7188210000022,n,0,0.9397717079991708,275.57160524999927,None,275.57160524999927,275.7188210000022,0.79,276.5241040000037,None,277.3175923750023,None,None,None,None,None,,,,,,,,,2,B,02,2022-12-06_10h53.40.329,AssociativeLearning_v2,2022.1.4,None,
n,m,Control,S,C,T,Square,Circle,Triangle,air,sky,earth,Air,Earth,Earth,words,word,air,air,Air,Yes,,,,,,,0,0,0,0,0,0,0,0,0,0,0,0,,,,,8,7,103,11,,,,,,,,,,,,,,,,,,,,,,,,,,None,None,277.5729771250044,277.72189783400245,277.5729771250044,277.72189783400245,277.5729771250044,277.72189783400245,n,1,0.7681685409916099,277.5729771250044,None,277.5729771250044,277.72189783400245,0.543,278.36461216700263,None,278.91051045899803,None,None,None,None,None,,,,,,,,,2,B,02,2022-12-06_10h53.40.329,AssociativeLearning_v2,2022.1.4,None,
n,m,Control,S,C,T,Square,Circle,Triangle,air,sky,earth,Air,Earth,Earth,words,word,sky,sky,Sky,Yes,,,,,,,0,0,0,0,0,0,0,0,0,0,0,0,,,,,8,8,104,9,,,,,,,,,,,,,,,,,,,,,,,,,,None,None,279.17159245900257,279.31347724999796,279.17159245900257,279.31347724999796,279.17159245900257,279.31347724999796,n,1,1.3143209999980172,279.17159245900257,None,279.17159245900257,279.31347724999796,0.718,280.49792483400233,None,281.2052298749986,None,None,None,None,None,,,,,,,,,2,B,02,2022-12-06_10h53.40.329,AssociativeLearning_v2,2022.1.4,None,
n,m,Control,S,C,T,Square,Circle,Triangle,air,sky,earth,Air,Earth,Earth,words,word,air,sky,Sky,No,,,,,,,0,0,0,0,0,0,0,0,0,0,0,0,,,,,8,9,105,7,,,,,,,,,,,,,,,,,,,,,,,,,,None,None,281.46303841700137,281.60363950000465,281.46303841700137,281.60363950000465,281.46303841700137,281.60363950000465,m,1,0.6247024159965804,281.46303841700137,None,281.46303841700137,281.60363950000465,0.708,282.10330125000473,None,282.80525079200015,None,None,None,None,None,,,,,,,,,2,B,02,2022-12-06_10h53.40.329,AssociativeLearning_v2,2022.1.4,None,
n,m,Control,S,C,T,Square,Circle,Triangle,air,sky,earth,Air,Earth,Earth,words,word,sky,sky,Sky,Yes,,,,,,,0,0,0,0,0,0,0,0,0,0,0,0,,,,,8,10,106,0,,,,,,,,,,,,,,,,,,,,,,,,,,None,None,283.06074283400085,283.20736316699913,283.06074283400085,283.20736316699913,283.06074283400085,283.20736316699913,n,1,0.7760909989956417,283.06074283400085,None,283.06074283400085,283.20736316699913,0.885,283.84725287499896,None,284.7322978750017,None,None,None,None,None,,,,,,,,,2,B,02,2022-12-06_10h53.40.329,AssociativeLearning_v2,2022.1.4,None,
n,m,Control,S,C,T,Square,Circle,Triangle,air,sky,earth,Air,Earth,Earth,words,word,sky,earth,Earth,No,,,,,,,0,0,0,0,0,0,0,0,0,0,0,0,,,,,8,11,107,1,,,,,,,,,,,,,,,,,,,,,,,,,,None,None,284.98583237500134,285.1329047090039,284.98583237500134,285.1329047090039,284.98583237500134,285.1329047090039,m,1,0.7198090409947326,284.98583237500134,None,284.98583237500134,285.1329047090039,0.845,285.7225202500049,None,286.5632587920045,None,None,None,None,None,,,,,,,,,2,B,02,2022-12-06_10h53.40.329,AssociativeLearning_v2,2022.1.4,None,
n,m,Control,S,C,T,Square,Circle,Triangle,air,sky,earth,Air,Earth,Earth,words,word,sky,air,Air,No,,,,,,,0,0,0,0,0,0,0,0,0,0,0,0,,,,,9,0,108,2,,,,,,,,,,,,,,,,,,,,,,,,,,None,None,286.81770804199914,286.9663724999991,286.81770804199914,286.9663724999991,286.81770804199914,286.9663724999991,m,1,0.9626599999974133,286.81770804199914,None,286.81770804199914,286.9663724999991,0.573,287.8044937090017,None,288.3712247920048,None,None,None,None,None,,,,,,,,,2,B,02,2022-12-06_10h53.40.329,AssociativeLearning_v2,2022.1.4,None,
n,m,Control,S,C,T,Square,Circle,Triangle,air,sky,earth,Air,Earth,Earth,words,word,air,earth,Earth,No,,,,,,,0,0,0,0,0,0,0,0,0,0,0,0,,,,,9,1,109,8,,,,,,,,,,,,,,,,,,,,,,,,,,None,None,288.62607116700383,288.77101254199806,288.62607116700383,288.77101254199806,288.62607116700383,288.77101254199806,n,0,1.3021019989973865,288.62607116700383,None,288.62607116700383,288.77101254199806,0.864,289.9395491670002,None,290.8032220840032,None,None,None,None,None,,,,,,,,,2,B,02,2022-12-06_10h53.40.329,AssociativeLearning_v2,2022.1.4,None,
n,m,Control,S,C,T,Square,Circle,Triangle,air,sky,earth,Air,Earth,Earth,words,word,air,sky,Sky,No,,,,,,,0,0,0,0,0,0,0,0,0,0,0,0,,,,,9,2,110,7,,,,,,,,,,,,,,,,,,,,,,,,,,None,None,291.0599818339979,291.20747491699876,291.0599818339979,291.20747491699876,291.0599818339979,291.20747491699876,n,0,0.6758681239953148,291.0599818339979,None,291.0599818339979,291.20747491699876,0.653,291.74734345899924,None,292.39950366700214,None,None,None,None,None,,,,,,,,,2,B,02,2022-12-06_10h53.40.329,AssociativeLearning_v2,2022.1.4,None,
n,m,Control,S,C,T,Square,Circle,Triangle,air,sky,earth,Air,Earth,Earth,words,word,air,air,Air,Yes,,,,,,,0,0,0,0,0,0,0,0,0,0,0,0,,,,,9,3,111,6,,,,,,,,,,,,,,,,,,,,,,,,,,None,None,292.65424424999946,292.79599854200205,292.65424424999946,292.79599854200205,292.65424424999946,292.79599854200205,n,1,0.5471883739955956,292.65424424999946,None,292.65424424999946,292.79599854200205,0.66,293.21553416700044,None,293.86982174999866,None,None,None,None,None,,,,,,,,,2,B,02,2022-12-06_10h53.40.329,AssociativeLearning_v2,2022.1.4,None,
n,m,Control,S,C,T,Square,Circle,Triangle,air,sky,earth,Air,Earth,Earth,words,word,earth,earth,Earth,Yes,,,,,,,0,0,0,0,0,0,0,0,0,0,0,0,,,,,9,4,112,3,,,,,,,,,,,,,,,,,,,,,,,,,,None,None,294.12832912500016,294.27382729200326,294.12832912500016,294.27382729200326,294.12832912500016,294.27382729200326,m,0,0.9888597909957753,294.12832912500016,None,294.12832912500016,294.27382729200326,0.872,295.1376567920015,None,296.01037533400086,None,None,None,None,None,,,,,,,,,2,B,02,2022-12-06_10h53.40.329,AssociativeLearning_v2,2022.1.4,None,
n,m,Control,S,C,T,Square,Circle,Triangle,air,sky,earth,Air,Earth,Earth,words,word,earth,sky,Sky,No,,,,,,,0,0,0,0,0,0,0,0,0,0,0,0,,,,,9,5,113,4,,,,,,,,,,,,,,,,,,,,,,,,,,None,None,296.2676679590004,296.4154181670019,296.2676679590004,296.4154181670019,296.2676679590004,296.4154181670019,m,1,0.801155082997866,296.2676679590004,None,296.2676679590004,296.4154181670019,0.742,297.08189129200036,None,297.8164608340012,None,None,None,None,None,,,,,,,,,2,B,02,2022-12-06_10h53.40.329,AssociativeLearning_v2,2022.1.4,None,
n,m,Control,S,C,T,Square,Circle,Triangle,air,sky,earth,Air,Earth,Earth,words,word,sky,sky,Sky,Yes,,,,,,,0,0,0,0,0,0,0,0,0,0,0,0,,,,,9,6,114,9,,,,,,,,,,,,,,,,,,,,,,,,,,None,None,298.0725378749994,298.21241858400026,298.0725378749994,298.21241858400026,298.0725378749994,298.21241858400026,n,1,0.9053553329940769,298.0725378749994,None,298.0725378749994,298.21241858400026,0.883,298.99113858400233,None,299.87164220900013,None,None,None,None,None,,,,,,,,,2,B,02,2022-12-06_10h53.40.329,AssociativeLearning_v2,2022.1.4,None,
n,m,Control,S,C,T,Square,Circle,Triangle,air,sky,earth,Air,Earth,Earth,words,word,sky,earth,Earth,No,,,,,,,0,0,0,0,0,0,0,0,0,0,0,0,,,,,9,7,115,1,,,,,,,,,,,,,,,,,,,,,,,,,,None,None,300.12624479200167,300.27519108400156,300.12624479200167,300.27519108400156,300.12624479200167,300.27519108400156,m,1,0.6410430830001133,300.12624479200167,None,300.12624479200167,300.27519108400156,0.748,300.77939908400003,None,301.52586204199906,None,None,None,None,None,,,,,,,,,2,B,02,2022-12-06_10h53.40.329,AssociativeLearning_v2,2022.1.4,None,
n,m,Control,S,C,T,Square,Circle,Triangle,air,sky,earth,Air,Earth,Earth,words,word,earth,earth,Earth,Yes,,,,,,,0,0,0,0,0,0,0,0,0,0,0,0,,,,,9,8,116,10,,,,,,,,,,,,,,,,,,,,,,,,,,None,None,301.78970770900196,301.93886645900056,301.78970770900196,301.93886645900056,301.78970770900196,301.93886645900056,n,1,0.8679922910014284,301.78970770900196,None,301.78970770900196,301.93886645900056,0.636,302.67155279200233,None,303.3047947090017,None,None,None,None,None,,,,,,,,,2,B,02,2022-12-06_10h53.40.329,AssociativeLearning_v2,2022.1.4,None,
n,m,Control,S,C,T,Square,Circle,Triangle,air,sky,earth,Air,Earth,Earth,words,word,sky,sky,Sky,Yes,,,,,,,0,0,0,0,0,0,0,0,0,0,0,0,,,,,9,9,117,0,,,,,,,,,,,,,,,,,,,,,,,,,,None,None,303.5614511669992,303.710185584001,303.5614511669992,303.710185584001,303.5614511669992,303.710185584001,m,0,0.5875706660008291,303.5614511669992,None,303.5614511669992,303.710185584001,0.612,304.1629657090016,None,304.78017041699786,None,None,None,None,None,,,,,,,,,2,B,02,2022-12-06_10h53.40.329,AssociativeLearning_v2,2022.1.4,None,
n,m,Control,S,C,T,Square,Circle,Triangle,air,sky,earth,Air,Earth,Earth,words,word,air,air,Air,Yes,,,,,,,0,0,0,0,0,0,0,0,0,0,0,0,,,,,9,10,118,11,,,,,,,,,,,,,,,,,,,,,,,,,,None,None,305.0470562499977,305.1868524169986,305.0470562499977,305.1868524169986,305.0470562499977,305.1868524169986,n,1,0.9306454159959685,305.0470562499977,None,305.0470562499977,305.1868524169986,0.606,305.9893241250029,None,306.5953431250018,None,None,None,None,None,,,,,,,,,2,B,02,2022-12-06_10h53.40.329,AssociativeLearning_v2,2022.1.4,None,
n,m,Control,S,C,T,Square,Circle,Triangle,air,sky,earth,Air,Earth,Earth,words,word,earth,air,Air,No,,,,,,,0,0,0,0,0,0,0,0,0,0,0,0,,,,,9,11,119,5,,,,,,,,,,,,,,,,,,,,,,,,,,None,None,306.8568975840026,307.0049189170022,306.8568975840026,307.0049189170022,306.8568975840026,307.0049189170022,m,1,0.9243825829980779,306.8568975840026,None,306.8568975840026,307.0049189170022,0.65,307.7963240840036,None,308.4420230420001,None,None,None,None,None,,,,,,,,,2,B,02,2022-12-06_10h53.40.329,AssociativeLearning_v2,2022.1.4,None,
n,m,Control,S,C,T,Square,Circle,Triangle,air,sky,earth,Air,Earth,Earth,words,word,air,air,Air,Yes,,,,,,,0,0,0,0,0,0,0,0,0,0,0,0,,,,,10,0,120,6,,,,,,,,,,,,,,,,,,,,,,,,,,None,None,308.69965170900105,308.84603074999904,308.69965170900105,308.84603074999904,308.69965170900105,308.84603074999904,m,0,0.9533242079996853,308.69965170900105,None,308.69965170900105,308.84603074999904,0.615,309.6691699170042,None,310.2769625420042,None,None,None,None,None,,,,,,,,,2,B,02,2022-12-06_10h53.40.329,AssociativeLearning_v2,2022.1.4,None,
n,m,Control,S,C,T,Square,Circle,Triangle,air,sky,earth,Air,Earth,Earth,words,word,sky,earth,Earth,No,,,,,,,0,0,0,0,0,0,0,0,0,0,0,0,,,,,10,1,121,1,,,,,,,,,,,,,,,,,,,,,,,,,,None,None,310.5368732499992,310.68403720900096,310.5368732499992,310.68403720900096,310.5368732499992,310.68403720900096,m,1,0.8904828329978045,310.5368732499992,None,310.5368732499992,310.68403720900096,0.577,311.44913812500454,None,312.0291624590027,None,None,None,None,None,,,,,,,,,2,B,02,2022-12-06_10h53.40.329,AssociativeLearning_v2,2022.1.4,None,
n,m,Control,S,C,T,Square,Circle,Triangle,air,sky,earth,Air,Earth,Earth,words,word,earth,earth,Earth,Yes,,,,,,,0,0,0,0,0,0,0,0,0,0,0,0,,,,,10,2,122,3,,,,,,,,,,,,,,,,,,,,,,,,,,None,None,312.28956525000103,312.4391217090015,312.28956525000103,312.4391217090015,312.28956525000103,312.4391217090015,n,1,1.4061809569975594,312.28956525000103,None,312.28956525000103,312.4391217090015,0.715,313.7105217089993,None,314.4238697500041,None,None,None,None,None,,,,,,,,,2,B,02,2022-12-06_10h53.40.329,AssociativeLearning_v2,2022.1.4,None,
n,m,Control,S,C,T,Square,Circle,Triangle,air,sky,earth,Air,Earth,Earth,words,word,air,sky,Sky,No,,,,,,,0,0,0,0,0,0,0,0,0,0,0,0,,,,,10,3,123,7,,,,,,,,,,,,,,,,,,,,,,,,,,None,None,314.68137574999855,314.8278509169977,314.68137574999855,314.8278509169977,314.68137574999855,314.8278509169977,m,1,0.6046754989947658,314.68137574999855,None,314.68137574999855,314.8278509169977,0.763,315.3080226250022,None,316.06664929199906,None,None,None,None,None,,,,,,,,,2,B,02,2022-12-06_10h53.40.329,AssociativeLearning_v2,2022.1.4,None,
n,m,Control,S,C,T,Square,Circle,Triangle,air,sky,earth,Air,Earth,Earth,words,word,air,earth,Earth,No,,,,,,,0,0,0,0,0,0,0,0,0,0,0,0,,,,,10,4,124,8,,,,,,,,,,,,,,,,,,,,,,,,,,None,None,316.3220778340037,316.46213904199976,316.3220778340037,316.46213904199976,316.3220778340037,316.46213904199976,n,0,0.8156593329986208,316.3220778340037,None,316.3220778340037,316.46213904199976,0.563,317.15148775000125,None,317.71936633400037,None,None,None,None,None,,,,,,,,,2,B,02,2022-12-06_10h53.40.329,AssociativeLearning_v2,2022.1.4,None,
n,m,Control,S,C,T,Square,Circle,Triangle,air,sky,earth,Air,Earth,Earth,words,word,sky,sky,Sky,Yes,,,,,,,0,0,0,0,0,0,0,0,0,0,0,0,,,,,10,5,125,9,,,,,,,,,,,,,,,,,,,,,,,,,,None,None,317.9834757089993,318.1291132090046,317.9834757089993,318.1291132090046,317.9834757089993,318.1291132090046,n,1,1.02832974899502,317.9834757089993,None,317.9834757089993,318.1291132090046,0.622,319.02668429200276,None,319.64359250000416,None,None,None,None,None,,,,,,,,,2,B,02,2022-12-06_10h53.40.329,AssociativeLearning_v2,2022.1.4,None,
n,m,Control,S,C,T,Square,Circle,Triangle,air,sky,earth,Air,Earth,Earth,words,word,sky,air,Air,No,,,,,,,0,0,0,0,0,0,0,0,0,0,0,0,,,,,10,6,126,2,,,,,,,,,,,,,,,,,,,,,,,,,,None,None,319.902895584004,320.05041729200457,319.902895584004,320.05041729200457,319.902895584004,320.05041729200457,m,1,0.6341724160010926,319.902895584004,None,319.902895584004,320.05041729200457,0.756,320.5545510000011,None,321.30834591700113,None,None,None,None,None,,,,,,,,,2,B,02,2022-12-06_10h53.40.329,AssociativeLearning_v2,2022.1.4,None,
n,m,Control,S,C,T,Square,Circle,Triangle,air,sky,earth,Air,Earth,Earth,words,word,earth,sky,Sky,No,,,,,,,0,0,0,0,0,0,0,0,0,0,0,0,,,,,10,7,127,4,,,,,,,,,,,,,,,,,,,,,,,,,,None,None,321.5665405000036,321.7122887919977,321.5665405000036,321.7122887919977,321.5665405000036,321.7122887919977,n,0,1.1168963739983155,321.5665405000036,None,321.5665405000036,321.7122887919977,0.824,322.70526641700417,None,323.52570879200357,None,None,None,None,None,,,,,,,,,2,B,02,2022-12-06_10h53.40.329,AssociativeLearning_v2,2022.1.4,None,
n,m,Control,S,C,T,Square,Circle,Triangle,air,sky,earth,Air,Earth,Earth,words,word,sky,sky,Sky,Yes,,,,,,,0,0,0,0,0,0,0,0,0,0,0,0,,,,,10,8,128,0,,,,,,,,,,,,,,,,,,,,,,,,,,None,None,323.7825105419979,323.9282657090007,323.7825105419979,323.9282657090007,323.7825105419979,323.9282657090007,m,0,0.7401940409981762,323.7825105419979,None,323.7825105419979,323.9282657090007,0.857,324.5456900420031,None,325.3987150419998,None,None,None,None,None,,,,,,,,,2,B,02,2022-12-06_10h53.40.329,AssociativeLearning_v2,2022.1.4,None,
n,m,Control,S,C,T,Square,Circle,Triangle,air,sky,earth,Air,Earth,Earth,words,word,earth,air,Air,No,,,,,,,0,0,0,0,0,0,0,0,0,0,0,0,,,,,10,9,129,5,,,,,,,,,,,,,,,,,,,,,,,,,,None,None,325.6588959590008,325.8075355000037,325.6588959590008,325.8075355000037,325.6588959590008,325.8075355000037,m,1,0.8139308739991975,325.6588959590008,None,325.6588959590008,325.8075355000037,0.832,326.48594887500076,None,327.31774670899904,None,None,None,None,None,,,,,,,,,2,B,02,2022-12-06_10h53.40.329,AssociativeLearning_v2,2022.1.4,None,
n,m,Control,S,C,T,Square,Circle,Triangle,air,sky,earth,Air,Earth,Earth,words,word,air,air,Air,Yes,,,,,,,0,0,0,0,0,0,0,0,0,0,0,0,,,,,10,10,130,11,,,,,,,,,,,,,,,,,,,,,,,,,,None,None,327.57926216700434,327.7258735840005,327.57926216700434,327.7258735840005,327.57926216700434,327.7258735840005,None,0,,327.57926216700434,None,327.57926216700434,327.7258735840005,0.56,329.0776791669996,None,329.6306335420013,None,None,None,None,None,,,,,,,,,2,B,02,2022-12-06_10h53.40.329,AssociativeLearning_v2,2022.1.4,None,
n,m,Control,S,C,T,Square,Circle,Triangle,air,sky,earth,Air,Earth,Earth,words,word,earth,earth,Earth,Yes,,,,,,,0,0,0,0,0,0,0,0,0,0,0,0,,,,,10,11,131,10,,,,,,,,,,,,,,,,,,,,,,,,,,None,None,329.8873533750011,330.0354454999979,329.8873533750011,330.0354454999979,329.8873533750011,330.0354454999979,m,0,0.9882313739944948,329.8873533750011,None,329.8873533750011,330.0354454999979,0.657,330.88906733399926,None,331.5431688750032,None,None,None,None,None,,,,,,,,,2,B,02,2022-12-06_10h53.40.329,AssociativeLearning_v2,2022.1.4,None,
n,m,Control,S,C,T,Square,Circle,Triangle,air,sky,earth,Air,Earth,Earth,words,word,air,sky,Sky,No,,,,,,,0,0,0,0,0,0,0,0,0,0,0,0,,,,,11,0,132,7,,,,,,,,,,,,,,,,,,,,,,,,,,None,None,331.8053880000007,331.9448332920001,331.8053880000007,331.9448332920001,331.8053880000007,331.9448332920001,n,0,0.8117969989980338,331.8053880000007,None,331.8053880000007,331.9448332920001,0.529,332.63813820900396,None,333.163264584,None,None,None,None,None,,,,,,,,,2,B,02,2022-12-06_10h53.40.329,AssociativeLearning_v2,2022.1.4,None,
n,m,Control,S,C,T,Square,Circle,Triangle,air,sky,earth,Air,Earth,Earth,words,word,air,earth,Earth,No,,,,,,,0,0,0,0,0,0,0,0,0,0,0,0,,,,,11,1,133,8,,,,,,,,,,,,,,,,,,,,,,,,,,None,None,333.415352875003,333.56147358399903,333.415352875003,333.56147358399903,333.415352875003,333.56147358399903,n,0,0.8631753750014468,333.415352875003,None,333.415352875003,333.56147358399903,0.893,334.2973371670014,None,335.1886741670023,None,None,None,None,None,,,,,,,,,2,B,02,2022-12-06_10h53.40.329,AssociativeLearning_v2,2022.1.4,None,
n,m,Control,S,C,T,Square,Circle,Triangle,air,sky,earth,Air,Earth,Earth,words,word,earth,earth,Earth,Yes,,,,,,,0,0,0,0,0,0,0,0,0,0,0,0,,,,,11,2,134,3,,,,,,,,,,,,,,,,,,,,,,,,,,None,None,335.4437781669985,335.59178970900393,335.4437781669985,335.59178970900393,335.4437781669985,335.59178970900393,n,1,0.6122579989969381,335.4437781669985,None,335.4437781669985,335.59178970900393,0.763,336.0822461249991,None,336.83793691699975,None,None,None,None,None,,,,,,,,,2,B,02,2022-12-06_10h53.40.329,AssociativeLearning_v2,2022.1.4,None,
n,m,Control,S,C,T,Square,Circle,Triangle,air,sky,earth,Air,Earth,Earth,words,word,air,air,Air,Yes,,,,,,,0,0,0,0,0,0,0,0,0,0,0,0,,,,,11,3,135,11,,,,,,,,,,,,,,,,,,,,,,,,,,None,None,337.09698650000064,337.23707975000434,337.09698650000064,337.23707975000434,337.09698650000064,337.23707975000434,n,1,0.8556657489971258,337.09698650000064,None,337.09698650000064,337.23707975000434,0.709,337.9645243749983,None,338.6632353340028,None,None,None,None,None,,,,,,,,,2,B,02,2022-12-06_10h53.40.329,AssociativeLearning_v2,2022.1.4,None,
n,m,Control,S,C,T,Square,Circle,Triangle,air,sky,earth,Air,Earth,Earth,words,word,air,air,Air,Yes,,,,,,,0,0,0,0,0,0,0,0,0,0,0,0,,,,,11,4,136,6,,,,,,,,,,,,,,,,,,,,,,,,,,None,None,338.91540687499946,339.0614109169983,338.91540687499946,339.0614109169983,338.91540687499946,339.0614109169983,n,1,0.5889014159984072,338.91540687499946,None,338.91540687499946,339.0614109169983,0.684,339.51730191700335,None,340.1989469170003,None,None,None,None,None,,,,,,,,,2,B,02,2022-12-06_10h53.40.329,AssociativeLearning_v2,2022.1.4,None,
n,m,Control,S,C,T,Square,Circle,Triangle,air,sky,earth,Air,Earth,Earth,words,word,earth,sky,Sky,No,,,,,,,0,0,0,0,0,0,0,0,0,0,0,0,,,,,11,5,137,4,,,,,,,,,,,,,,,,,,,,,,,,,,None,None,340.4536907090005,340.6002392090013,340.4536907090005,340.6002392090013,340.4536907090005,340.6002392090013,m,1,0.561848874000134,340.4536907090005,None,340.4536907090005,340.6002392090013,0.694,341.028208249998,None,341.7130263750005,None,None,None,None,None,,,,,,,,,2,B,02,2022-12-06_10h53.40.329,AssociativeLearning_v2,2022.1.4,None,
n,m,Control,S,C,T,Square,Circle,Triangle,air,sky,earth,Air,Earth,Earth,words,word,sky,sky,Sky,Yes,,,,,,,0,0,0,0,0,0,0,0,0,0,0,0,,,,,11,6,138,0,,,,,,,,,,,,,,,,,,,,,,,,,,None,None,341.96847691699804,342.11620983399916,341.96847691699804,342.11620983399916,341.96847691699804,342.11620983399916,m,0,1.099054623999109,341.96847691699804,None,341.96847691699804,342.11620983399916,0.86,343.08813416700286,None,343.9424889590009,None,None,None,None,None,,,,,,,,,2,B,02,2022-12-06_10h53.40.329,AssociativeLearning_v2,2022.1.4,None,
n,m,Control,S,C,T,Square,Circle,Triangle,air,sky,earth,Air,Earth,Earth,words,word,sky,sky,Sky,Yes,,,,,,,0,0,0,0,0,0,0,0,0,0,0,0,,,,,11,7,139,9,,,,,,,,,,,,,,,,,,,,,,,,,,None,None,344.200808667003,344.3481275000013,344.200808667003,344.3481275000013,344.200808667003,344.3481275000013,m,0,0.7116691659975913,344.200808667003,None,344.200808667003,344.3481275000013,0.566,344.92510045900417,None,345.4878802500025,None,None,None,None,None,,,,,,,,,2,B,02,2022-12-06_10h53.40.329,AssociativeLearning_v2,2022.1.4,None,
n,m,Control,S,C,T,Square,Circle,Triangle,air,sky,earth,Air,Earth,Earth,words,word,earth,earth,Earth,Yes,,,,,,,0,0,0,0,0,0,0,0,0,0,0,0,,,,,11,8,140,10,,,,,,,,,,,,,,,,,,,,,,,,,,None,None,345.7422730420003,345.8902563750016,345.7422730420003,345.8902563750016,345.7422730420003,345.8902563750016,m,0,0.7079373329979717,345.7422730420003,None,345.7422730420003,345.8902563750016,0.75,346.4737611669989,None,347.2242372500041,None,None,None,None,None,,,,,,,,,2,B,02,2022-12-06_10h53.40.329,AssociativeLearning_v2,2022.1.4,None,
n,m,Control,S,C,T,Square,Circle,Triangle,air,sky,earth,Air,Earth,Earth,words,word,earth,air,Air,No,,,,,,,0,0,0,0,0,0,0,0,0,0,0,0,,,,,11,9,141,5,,,,,,,,,,,,,,,,,,,,,,,,,,None,None,347.4782467500045,347.6268464169989,347.4782467500045,347.6268464169989,347.4782467500045,347.6268464169989,n,0,0.7635474159978912,347.4782467500045,None,347.4782467500045,347.6268464169989,0.877,348.266996792001,None,349.1419103340013,None,None,None,None,None,,,,,,,,,2,B,02,2022-12-06_10h53.40.329,AssociativeLearning_v2,2022.1.4,None,
n,m,Control,S,C,T,Square,Circle,Triangle,air,sky,earth,Air,Earth,Earth,words,word,sky,air,Air,No,,,,,,,0,0,0,0,0,0,0,0,0,0,0,0,,,,,11,10,142,2,,,,,,,,,,,,,,,,,,,,,,,,,,None,None,349.4051507090044,349.54516875000263,349.4051507090044,349.54516875000263,349.4051507090044,349.54516875000263,m,1,0.8839511659971322,349.4051507090044,None,349.4051507090044,349.54516875000263,0.621,350.30174783400435,None,350.92774383399956,None,None,None,None,None,,,,,,,,,2,B,02,2022-12-06_10h53.40.329,AssociativeLearning_v2,2022.1.4,None,
n,m,Control,S,C,T,Square,Circle,Triangle,air,sky,earth,Air,Earth,Earth,words,word,sky,earth,Earth,No,,,,,,,0,0,0,0,0,0,0,0,0,0,0,0,,,,,11,11,143,1,,,,,,,,,,,,,,,,,,,,,,,,,,None,None,351.1837327090034,351.32839700000477,351.1837327090034,351.32839700000477,351.1837327090034,351.32839700000477,m,1,1.1528444579962525,351.1837327090034,None,351.1837327090034,351.32839700000477,0.547,352.3486102090028,None,352.89216266699805,None,None,None,None,None,,,,,,,,,2,B,02,2022-12-06_10h53.40.329,AssociativeLearning_v2,2022.1.4,None,
n,m,Control,S,C,T,Square,Circle,Triangle,air,sky,earth,Air,Earth,Earth,words,word,sky,sky,Sky,Yes,,,,,,,0,0,0,0,0,0,0,0,0,0,0,0,,,,,12,0,144,9,,,,,,,,,,,,,,,,,,,,,,,,,,None,None,353.1532524170034,353.29505166700255,353.1532524170034,353.29505166700255,353.1532524170034,353.29505166700255,m,0,0.586047498996777,353.1532524170034,None,353.1532524170034,353.29505166700255,0.568,353.7539519589991,None,354.3173870840037,None,354.57388725066653,None,354.57388725066653,None,,,,,,,,,2,B,02,2022-12-06_10h53.40.329,AssociativeLearning_v2,2022.1.4,None,
n,m,Control,S,C,T,Square,Circle,Triangle,air,sky,earth,Air,Earth,Earth,words,word,air,earth,Earth,No,,,,,,,0,0,0,0,0,0,0,0,0,0,0,0,,,,,12,1,145,8,,,,,,,,,,,,,,,,,,,,,,,,,,None,None,354.57967199999985,354.72700954200263,354.57967199999985,354.72700954200263,354.57967199999985,354.72700954200263,n,0,0.9100194989950978,354.57967199999985,None,354.57967199999985,354.72700954200263,0.708,355.5029364590009,None,356.2069382920017,None,None,None,None,None,,,,,,,,,2,B,02,2022-12-06_10h53.40.329,AssociativeLearning_v2,2022.1.4,None,
n,m,Control,S,C,T,Square,Circle,Triangle,air,sky,earth,Air,Earth,Earth,words,word,sky,air,Air,No,,,,,,,0,0,0,0,0,0,0,0,0,0,0,0,,,,,12,2,146,2,,,,,,,,,,,,,,,,,,,,,,,,,,None,None,356.4627217090019,None,356.4627217090019,None,356.4627217090019,None,m,1,0.11051074999704724,356.4627217090019,None,356.4627217090019,None,0.754,356.5830408750044,None,357.3296742500024,None,None,None,None,None,,,,,,,,,2,B,02,2022-12-06_10h53.40.329,AssociativeLearning_v2,2022.1.4,None,
n,m,Control,S,C,T,Square,Circle,Triangle,air,sky,earth,Air,Earth,Earth,words,word,earth,earth,Earth,Yes,,,,,,,0,0,0,0,0,0,0,0,0,0,0,0,,,,,12,3,147,10,,,,,,,,,,,,,,,,,,,,,,,,,,None,None,357.587411667002,357.7286744590019,357.587411667002,357.7286744590019,357.587411667002,357.7286744590019,m,0,0.9647817499935627,357.587411667002,None,357.587411667002,357.7286744590019,0.723,358.5749418339983,None,359.29198129200086,None,None,None,None,None,,,,,,,,,2,B,02,2022-12-06_10h53.40.329,AssociativeLearning_v2,2022.1.4,None,
n,m,Control,S,C,T,Square,Circle,Triangle,air,sky,earth,Air,Earth,Earth,words,word,sky,earth,Earth,No,,,,,,,0,0,0,0,0,0,0,0,0,0,0,0,,,,,12,4,148,1,,,,,,,,,,,,,,,,,,,,,,,,,,None,None,359.5479349169982,359.6950604169979,359.5479349169982,359.6950604169979,359.5479349169982,359.6950604169979,m,1,0.7494029989975388,359.5479349169982,None,359.5479349169982,359.6950604169979,0.557,360.3143992500045,None,360.8677900840048,None,None,None,None,None,,,,,,,,,2,B,02,2022-12-06_10h53.40.329,AssociativeLearning_v2,2022.1.4,None,
n,m,Control,S,C,T,Square,Circle,Triangle,air,sky,earth,Air,Earth,Earth,words,word,sky,sky,Sky,Yes,,,,,,,0,0,0,0,0,0,0,0,0,0,0,0,,,,,12,5,149,0,,,,,,,,,,,,,,,,,,,,,,,,,,None,None,361.12658020899835,361.2745559590039,361.12658020899835,361.2745559590039,361.12658020899835,361.2745559590039,None,0,,361.12658020899835,None,361.12658020899835,361.2745559590039,0.74,362.62067104200105,None,363.362999625002,None,None,None,None,None,,,,,,,,,2,B,02,2022-12-06_10h53.40.329,AssociativeLearning_v2,2022.1.4,None,
n,m,Control,S,C,T,Square,Circle,Triangle,air,sky,earth,Air,Earth,Earth,words,word,air,sky,Sky,No,,,,,,,0,0,0,0,0,0,0,0,0,0,0,0,,,,,12,6,150,7,,,,,,,,,,,,,,,,,,,,,,,,,,None,None,363.6233887089984,363.7719942920012,363.6233887089984,363.7719942920012,363.6233887089984,363.7719942920012,n,0,1.2204165819930495,363.6233887089984,None,363.6233887089984,363.7719942920012,0.61,364.86070816699794,None,365.4630204999994,None,None,None,None,None,,,,,,,,,2,B,02,2022-12-06_10h53.40.329,AssociativeLearning_v2,2022.1.4,None,
n,m,Control,S,C,T,Square,Circle,Triangle,air,sky,earth,Air,Earth,Earth,words,word,earth,sky,Sky,No,,,,,,,0,0,0,0,0,0,0,0,0,0,0,0,,,,,12,7,151,4,,,,,,,,,,,,,,,,,,,,,,,,,,None,None,365.72098708400154,365.8632804170047,365.72098708400154,365.8632804170047,365.72098708400154,365.8632804170047,None,0,,365.72098708400154,None,365.72098708400154,365.8632804170047,0.888,367.2168309589979,None,368.11044412499905,None,None,None,None,None,,,,,,,,,2,B,02,2022-12-06_10h53.40.329,AssociativeLearning_v2,2022.1.4,None,
n,m,Control,S,C,T,Square,Circle,Triangle,air,sky,earth,Air,Earth,Earth,words,word,earth,air,Air,No,,,,,,,0,0,0,0,0,0,0,0,0,0,0,0,,,,,12,8,152,5,,,,,,,,,,,,,,,,,,,,,,,,,,None,None,368.3690687920025,368.5153959590025,368.3690687920025,368.5153959590025,368.3690687920025,368.5153959590025,m,1,1.3257426240015775,368.3690687920025,None,368.3690687920025,368.5153959590025,0.514,369.7076448750013,None,370.21783037500427,None,None,None,None,None,,,,,,,,,2,B,02,2022-12-06_10h53.40.329,AssociativeLearning_v2,2022.1.4,None,
n,m,Control,S,C,T,Square,Circle,Triangle,air,sky,earth,Air,Earth,Earth,words,word,air,air,Air,Yes,,,,,,,0,0,0,0,0,0,0,0,0,0,0,0,,,,,12,9,153,11,,,,,,,,,,,,,,,,,,,,,,,,,,None,None,370.47441799999797,370.62020204200235,370.47441799999797,370.62020204200235,370.47441799999797,370.62020204200235,None,0,,370.47441799999797,None,370.47441799999797,370.62020204200235,0.754,371.9752589589989,None,372.72154920900357,None,None,None,None,None,,,,,,,,,2,B,02,2022-12-06_10h53.40.329,AssociativeLearning_v2,2022.1.4,None,
n,m,Control,S,C,T,Square,Circle,Triangle,air,sky,earth,Air,Earth,Earth,words,word,air,air,Air,Yes,,,,,,,0,0,0,0,0,0,0,0,0,0,0,0,,,,,12,10,154,6,,,,,,,,,,,,,,,,,,,,,,,,,,None,None,372.9768170840034,373.12388945899875,372.9768170840034,373.12388945899875,372.9768170840034,373.12388945899875,m,0,0.8439685409975937,372.9768170840034,None,372.9768170840034,373.12388945899875,0.653,373.83858512499864,None,374.49320958400494,None,None,None,None,None,,,,,,,,,2,B,02,2022-12-06_10h53.40.329,AssociativeLearning_v2,2022.1.4,None,
n,m,Control,S,C,T,Square,Circle,Triangle,air,sky,earth,Air,Earth,Earth,words,word,earth,earth,Earth,Yes,,,,,,,0,0,0,0,0,0,0,0,0,0,0,0,,,,,12,11,155,3,,,,,,,,,,,,,,,,,,,,,,,,,,None,None,374.755150625002,374.89490933399793,374.755150625002,374.89490933399793,374.755150625002,374.89490933399793,m,0,1.123081623998587,374.755150625002,None,374.755150625002,374.89490933399793,0.574,375.8926686249979,None,376.4660363340008,None,None,None,None,None,,,,,,,,,2,B,02,2022-12-06_10h53.40.329,AssociativeLearning_v2,2022.1.4,None,
n,m,Control,S,C,T,Square,Circle,Triangle,air,sky,earth,Air,Earth,Earth,words,word,sky,air,Air,No,,,,,,,0,0,0,0,0,0,0,0,0,0,0,0,,,,,13,0,156,2,,,,,,,,,,,,,,,,,,,,,,,,,,None,None,376.72371404200385,376.8699035000027,376.72371404200385,376.8699035000027,376.72371404200385,376.8699035000027,m,1,0.937400125003478,376.72371404200385,None,376.72371404200385,376.8699035000027,0.871,377.67396883400215,None,378.54574604200025,None,None,None,None,None,,,,,,,,,2,B,02,2022-12-06_10h53.40.329,AssociativeLearning_v2,2022.1.4,None,
n,m,Control,S,C,T,Square,Circle,Triangle,air,sky,earth,Air,Earth,Earth,words,word,air,sky,Sky,No,,,,,,,0,0,0,0,0,0,0,0,0,0,0,0,,,,,13,1,157,7,,,,,,,,,,,,,,,,,,,,,,,,,,None,None,378.80085962500016,378.94907583400345,378.80085962500016,378.94907583400345,378.80085962500016,378.94907583400345,m,1,1.2676345410000067,378.80085962500016,None,378.80085962500016,378.94907583400345,0.592,380.0929102919981,None,380.67495279200375,None,None,None,None,None,,,,,,,,,2,B,02,2022-12-06_10h53.40.329,AssociativeLearning_v2,2022.1.4,None,
n,m,Control,S,C,T,Square,Circle,Triangle,air,sky,earth,Air,Earth,Earth,words,word,sky,earth,Earth,No,,,,,,,0,0,0,0,0,0,0,0,0,0,0,0,,,,,13,2,158,1,,,,,,,,,,,,,,,,,,,,,,,,,,None,None,380.9325844999985,381.0783622500021,380.9325844999985,381.0783622500021,380.9325844999985,381.0783622500021,n,0,0.8120164579959237,380.9325844999985,None,380.9325844999985,381.0783622500021,0.504,381.7571966250034,None,382.2591957090044,None,None,None,None,None,,,,,,,,,2,B,02,2022-12-06_10h53.40.329,AssociativeLearning_v2,2022.1.4,None,
n,m,Control,S,C,T,Square,Circle,Triangle,air,sky,earth,Air,Earth,Earth,words,word,earth,earth,Earth,Yes,,,,,,,0,0,0,0,0,0,0,0,0,0,0,0,,,,,13,3,159,3,,,,,,,,,,,,,,,,,,,,,,,,,,None,None,382.519811750004,382.6668472090023,382.519811750004,382.6668472090023,382.519811750004,382.6668472090023,n,1,0.6638504160000593,382.519811750004,None,382.519811750004,382.6668472090023,0.74,383.1992103340017,None,383.9334961670029,None,None,None,None,None,,,,,,,,,2,B,02,2022-12-06_10h53.40.329,AssociativeLearning_v2,2022.1.4,None,
n,m,Control,S,C,T,Square,Circle,Triangle,air,sky,earth,Air,Earth,Earth,words,word,earth,air,Air,No,,,,,,,0,0,0,0,0,0,0,0,0,0,0,0,,,,,13,4,160,5,,,,,,,,,,,,,,,,,,,,,,,,,,None,None,384.1882297089978,384.3284530000019,384.1882297089978,384.3284530000019,384.1882297089978,384.3284530000019,m,1,0.6834353320009541,384.1882297089978,None,384.1882297089978,384.3284530000019,0.792,384.8884830419993,None,385.6824971669994,None,None,None,None,None,,,,,,,,,2,B,02,2022-12-06_10h53.40.329,AssociativeLearning_v2,2022.1.4,None,
n,m,Control,S,C,T,Square,Circle,Triangle,air,sky,earth,Air,Earth,Earth,words,word,air,air,Air,Yes,,,,,,,0,0,0,0,0,0,0,0,0,0,0,0,,,,,13,5,161,6,,,,,,,,,,,,,,,,,,,,,,,,,,None,None,385.9408635840009,386.08699958400393,385.9408635840009,386.08699958400393,385.9408635840009,386.08699958400393,n,1,1.0280116239955532,385.9408635840009,None,385.9408635840009,386.08699958400393,0.515,386.98062495900376,None,387.491101833999,None,None,None,None,None,,,,,,,,,2,B,02,2022-12-06_10h53.40.329,AssociativeLearning_v2,2022.1.4,None,
n,m,Control,S,C,T,Square,Circle,Triangle,air,sky,earth,Air,Earth,Earth,words,word,earth,earth,Earth,Yes,,,,,,,0,0,0,0,0,0,0,0,0,0,0,0,,,,,13,6,162,10,,,,,,,,,,,,,,,,,,,,,,,,,,None,None,387.74999554199894,387.895766792004,387.74999554199894,387.895766792004,387.74999554199894,387.895766792004,m,0,0.7912374160005129,387.74999554199894,None,387.74999554199894,387.895766792004,0.644,388.5639486250002,None,389.20390120900265,None,None,None,None,None,,,,,,,,,2,B,02,2022-12-06_10h53.40.329,AssociativeLearning_v2,2022.1.4,None,
n,m,Control,S,C,T,Square,Circle,Triangle,air,sky,earth,Air,Earth,Earth,words,word,sky,sky,Sky,Yes,,,,,,,0,0,0,0,0,0,0,0,0,0,0,0,,,,,13,7,163,0,,,,,,,,,,,,,,,,,,,,,,,,,,None,None,389.4649869999994,389.6137519170006,389.4649869999994,389.6137519170006,389.4649869999994,389.6137519170006,m,0,0.713688749994617,389.4649869999994,None,389.4649869999994,389.6137519170006,0.759,390.195839,None,390.9490488750016,None,None,None,None,None,,,,,,,,,2,B,02,2022-12-06_10h53.40.329,AssociativeLearning_v2,2022.1.4,None,
n,m,Control,S,C,T,Square,Circle,Triangle,air,sky,earth,Air,Earth,Earth,words,word,sky,sky,Sky,Yes,,,,,,,0,0,0,0,0,0,0,0,0,0,0,0,,,,,13,8,164,9,,,,,,,,,,,,,,,,,,,,,,,,,,None,None,391.20570554200094,391.35291824999877,391.20570554200094,391.35291824999877,391.20570554200094,391.35291824999877,n,1,0.6734449569921708,391.20570554200094,None,391.20570554200094,391.35291824999877,0.892,391.9002075840035,None,392.7955924170019,None,None,None,None,None,,,,,,,,,2,B,02,2022-12-06_10h53.40.329,AssociativeLearning_v2,2022.1.4,None,
